onset	duration	trial_type	accuracy	response_time	stim1_file	stim2_file
0.0	4.443	3	1	1.633	RhymeSpell/mouth.bmp	RhymeSpell/youth1.bmp
4.443	4.443	2	1	0.906	RhymeSpell/tone.bmp	RhymeSpell/known1.bmp
8.886	4.443	5	1	1.239	Symbols/t.bmp	Symbols/g2.bmp
13.329	4.442	0	1	2.014	RhymeSpell/null.bmp	RhymeSpell/null.bmp
17.771	4.443	3	0	1.037	RhymeSpell/pool.bmp	RhymeSpell/wool2.bmp
22.214	4.443	0	1	2.648	RhymeSpell/null.bmp	RhymeSpell/null.bmp
26.657	4.443	5	1	1.432	Symbols/w.bmp	Symbols/w2.bmp
31.1	4.443	5	1	1.383	Symbols/u.bmp	Symbols/u2.bmp
35.543	4.443	1	1	1.585	RhymeSpell/meal.bmp	RhymeSpell/seal1.bmp
39.986	4.442	0	1	2.953	RhymeSpell/null.bmp	RhymeSpell/null.bmp
44.428	4.443	3	1	1.788	RhymeSpell/low.bmp	RhymeSpell/vow1.bmp
48.871	4.443	6	1	1.555	Symbols/mfc.bmp	Symbols/mfc1.bmp
53.314	4.443	0	1	2.598	RhymeSpell/null.bmp	RhymeSpell/null.bmp
57.757	4.443	0	1	1.91	RhymeSpell/null.bmp	RhymeSpell/null.bmp
62.2	4.443	4	1	1.633	RhymeSpell/wrist.bmp	RhymeSpell/friend2.bmp
66.643	4.442	4	1	0.677	RhymeSpell/halt.bmp	RhymeSpell/stain2.bmp
71.085	4.443	0	1	1.983	RhymeSpell/null.bmp	RhymeSpell/null.bmp
75.528	4.443	6	1	1.412	Symbols/crs.bmp	Symbols/cre2.bmp
79.971	4.443	6	1	1.188	Symbols/pcf.bmp	Symbols/kcf2.bmp
84.414	4.443	0	1	1.003	RhymeSpell/null.bmp	RhymeSpell/null.bmp
88.857	4.443	1	1	1.705	RhymeSpell/cure.bmp	RhymeSpell/sure2.bmp
93.3	4.442	2	1	2.107	RhymeSpell/sleek.bmp	RhymeSpell/speak1.bmp
97.742	4.443	0	1	1.738	RhymeSpell/null.bmp	RhymeSpell/null.bmp
102.185	4.443	4	1	1.014	RhymeSpell/trust.bmp	RhymeSpell/chalk2.bmp
106.628	4.443	2	1	1.178	RhymeSpell/street.bmp	RhymeSpell/wheat2.bmp
111.071	4.443	0	1	2.092	RhymeSpell/null.bmp	RhymeSpell/null.bmp
115.514	4.443	6	1	1.131	Symbols/van.bmp	Symbols/van2.bmp
119.957	4.443	6	1	1.707	Symbols/jzd.bmp	Symbols/jbd2.bmp
124.4	4.442	0	0	n/a	RhymeSpell/null.bmp	RhymeSpell/null.bmp
128.842	4.443	5	1	1.303	Symbols/s.bmp	Symbols/j2.bmp
133.285	4.443	0	1	2.675	RhymeSpell/null.bmp	RhymeSpell/null.bmp
137.728	4.443	2	1	1.312	RhymeSpell/rear.bmp	RhymeSpell/mere1.bmp
142.171	4.443	1	1	1.739	RhymeSpell/crown.bmp	RhymeSpell/town2.bmp
146.614	4.443	3	1	1.908	RhymeSpell/sword.bmp	RhymeSpell/word2.bmp
151.057	4.442	6	1	1.08	Symbols/ksg.bmp	Symbols/ksj2.bmp
155.499	4.443	3	0	1.13	RhymeSpell/head.bmp	RhymeSpell/bead2.bmp
159.942	4.443	0	1	2.217	RhymeSpell/null.bmp	RhymeSpell/null.bmp
164.385	4.443	5	1	0.652	Symbols/l.bmp	Symbols/l2.bmp
168.828	4.443	0	1	1.954	RhymeSpell/null.bmp	RhymeSpell/null.bmp
173.271	4.443	6	1	1.967	Symbols/uab.bmp	Symbols/iab1.bmp
177.714	4.442	2	1	1.227	RhymeSpell/size.bmp	RhymeSpell/wise2.bmp
182.156	4.443	4	1	1.74	RhymeSpell/clash.bmp	RhymeSpell/worse1.bmp
186.599	4.443	5	1	1.24	Symbols/c.bmp	Symbols/v1.bmp
191.042	4.443	0	1	2.58	RhymeSpell/null.bmp	RhymeSpell/null.bmp
195.485	4.443	0	1	1.589	RhymeSpell/null.bmp	RhymeSpell/null.bmp
199.928	4.443	4	1	1.151	RhymeSpell/loose.bmp	RhymeSpell/drew1.bmp
204.371	4.442	0	1	2.034	RhymeSpell/null.bmp	RhymeSpell/null.bmp
208.813	4.443	4	1	1.464	RhymeSpell/yeast.bmp	RhymeSpell/tooth1.bmp
213.256	4.443	0	1	2.61	RhymeSpell/null.bmp	RhymeSpell/null.bmp
217.699	4.443	3	1	2.193	RhymeSpell/shove.bmp	RhymeSpell/wove1.bmp
222.142	4.443	5	1	1.677	Symbols/n.bmp	Symbols/n1.bmp
226.585	4.443	2	1	1.715	RhymeSpell/chair.bmp	RhymeSpell/scare1.bmp
231.028	4.442	0	1	1.706	RhymeSpell/null.bmp	RhymeSpell/null.bmp
235.47	4.443	1	1	1.354	RhymeSpell/dad.bmp	RhymeSpell/sad1.bmp
239.913	4.443	0	1	3.142	RhymeSpell/null.bmp	RhymeSpell/null.bmp
244.356	4.443	4	1	1.445	RhymeSpell/beef.bmp	RhymeSpell/keep2.bmp
248.799	4.443	3	1	1.41	RhymeSpell/broad.bmp	RhymeSpell/toad1.bmp
253.242	4.443	0	1	1.613	RhymeSpell/null.bmp	RhymeSpell/null.bmp
257.685	4.443	0	1	1.526	RhymeSpell/null.bmp	RhymeSpell/null.bmp
262.128	4.442	4	1	1.118	RhymeSpell/rail.bmp	RhymeSpell/fast1.bmp
266.57	4.443	0	1	1.507	RhymeSpell/null.bmp	RhymeSpell/null.bmp
271.013	4.443	1	1	1.187	RhymeSpell/leg.bmp	RhymeSpell/peg2.bmp
275.456	4.443	1	1	1.447	RhymeSpell/mule.bmp	RhymeSpell/rule2.bmp
279.899	4.443	6	1	1.586	Symbols/upw.bmp	Symbols/upw1.bmp
284.342	4.443	6	1	1.782	Symbols/myh.bmp	Symbols/myl1.bmp
288.785	4.442	0	1	2.07	RhymeSpell/null.bmp	RhymeSpell/null.bmp
293.227	4.443	4	1	0.787	RhymeSpell/storm.bmp	RhymeSpell/chose2.bmp
297.67	4.443	0	1	2.087	RhymeSpell/null.bmp	RhymeSpell/null.bmp
302.113	4.443	2	1	1.764	RhymeSpell/prize.bmp	RhymeSpell/rise1.bmp
306.556	4.443	0	1	2.026	RhymeSpell/null.bmp	RhymeSpell/null.bmp
310.999	4.443	1	1	0.939	RhymeSpell/fought.bmp	RhymeSpell/sought2.bmp
315.442	4.442	4	0	n/a	RhymeSpell/wage.bmp	RhymeSpell/spice1.bmp
319.884	4.443	1	0	1.966	RhymeSpell/beast.bmp	RhymeSpell/least2.bmp
324.327	4.443	5	1	1.438	Symbols/i.bmp	Symbols/i2.bmp
328.77	4.443	5	1	1.57	Symbols/r.bmp	Symbols/z2.bmp
333.213	4.443	0	1	2.908	RhymeSpell/null.bmp	RhymeSpell/null.bmp
337.656	4.443	4	1	1.209	RhymeSpell/dome.bmp	RhymeSpell/fool2.bmp
342.099	4.442	0	1	1.086	RhymeSpell/null.bmp	RhymeSpell/null.bmp
346.541	4.443	1	0	1.54	RhymeSpell/grant.bmp	RhymeSpell/slant1.bmp
350.984	4.443	1	1	1.631	RhymeSpell/numb.bmp	RhymeSpell/thumb2.bmp
355.427	4.443	1	1	1.042	RhymeSpell/chess.bmp	RhymeSpell/press2.bmp
359.87	4.443	6	1	0.856	Symbols/hio.bmp	Symbols/hio2.bmp
364.313	4.443	3	1	1.816	RhymeSpell/damp.bmp	RhymeSpell/swamp1.bmp
368.756	4.442	2	1	2.077	RhymeSpell/true.bmp	RhymeSpell/grew2.bmp
373.198	4.443	0	1	1.5	RhymeSpell/null.bmp	RhymeSpell/null.bmp
377.641	4.443	5	1	1.553	Symbols/p.bmp	Symbols/s1.bmp
382.084	4.443	3	0	1.64	RhymeSpell/shown.bmp	RhymeSpell/clown2.bmp
386.527	4.443	4	1	1.403	RhymeSpell/paint.bmp	RhymeSpell/sigh2.bmp
390.97	4.443	1	0	1.26	RhymeSpell/stone.bmp	RhymeSpell/zone1.bmp
395.413	4.443	0	1	1.208	RhymeSpell/null.bmp	RhymeSpell/null.bmp
399.856	4.442	6	1	1.26	Symbols/mey.bmp	Symbols/mey2.bmp
404.298	4.443	0	1	1.402	RhymeSpell/null.bmp	RhymeSpell/null.bmp
408.741	4.443	0	1	1.512	RhymeSpell/null.bmp	RhymeSpell/null.bmp
413.184	4.443	2	0	2.263	RhymeSpell/spear.bmp	RhymeSpell/sphere2.bmp
417.627	4.443	0	1	1.986	RhymeSpell/null.bmp	RhymeSpell/null.bmp
422.07	4.443	6	1	1.623	Symbols/odt.bmp	Symbols/odt2.bmp
426.513	4.442	2	1	1.624	RhymeSpell/pro.bmp	RhymeSpell/mow2.bmp
430.955	4.443	0	1	1.96	RhymeSpell/null.bmp	RhymeSpell/null.bmp
435.398	4.443	4	1	1.118	RhymeSpell/home.bmp	RhymeSpell/form2.bmp
439.841	4.443	3	1	2.339	RhymeSpell/smooth.bmp	RhymeSpell/booth2.bmp
444.284	4.443	0	1	2.878	RhymeSpell/null.bmp	RhymeSpell/null.bmp
448.727	4.443	1	1	1.036	RhymeSpell/grief.bmp	RhymeSpell/thief1.bmp
453.17	4.442	2	1	1.876	RhymeSpell/top.bmp	RhymeSpell/swap2.bmp
457.612	4.443	5	1	1.674	Symbols/v.bmp	Symbols/h1.bmp
462.055	4.443	0	1	1.878	RhymeSpell/null.bmp	RhymeSpell/null.bmp
466.498	4.443	5	0	n/a	Symbols/h.bmp	Symbols/c2.bmp
470.941	4.443	0	1	1.476	RhymeSpell/null.bmp	RhymeSpell/null.bmp
475.384	4.439	4	1	1.723	RhymeSpell/dream.bmp	RhymeSpell/blame1.bmp
