onset	duration	trial_type	accuracy	response_time	stim1_file	stim2_file
0.0	4.442	3	1	1.271	RhymeSpell/mouth.WAV	RhymeSpell/youth.WAV
4.442	4.443	2	1	1.251	RhymeSpell/tone.WAV	RhymeSpell/known.WAV
8.885	4.443	5	1	1.052	Tones/675.WAV	Tones/600.WAV
13.328	4.443	0	1	1.126	Tones/nullsilence.WAV	Tones/nullsilence.WAV
17.771	4.443	3	0	1.289	RhymeSpell/pool.WAV	RhymeSpell/wool.WAV
22.214	4.443	0	1	1.015	Tones/nullsilence.WAV	Tones/nullsilence.WAV
26.657	4.442	5	1	1.34	Tones/600.WAV	Tones/600.WAV
31.099	4.443	5	1	1.177	Tones/325.WAV	Tones/325.WAV
35.542	4.443	1	1	1.357	RhymeSpell/meal.WAV	RhymeSpell/seal.WAV
39.985	4.443	0	1	1.307	Tones/nullsilence.WAV	Tones/nullsilence.WAV
44.428	4.443	3	1	1.111	RhymeSpell/low.WAV	RhymeSpell/vow.WAV
48.871	4.443	6	1	1.2	Tones/425600750.WAV	Tones/425600750.WAV
53.314	4.443	0	1	1.164	Tones/nullsilence.WAV	Tones/nullsilence.WAV
57.757	4.442	0	1	1.138	Tones/nullsilence.WAV	Tones/nullsilence.WAV
62.199	4.443	4	1	1.1	RhymeSpell/wrist.WAV	RhymeSpell/friend.WAV
66.642	4.443	4	1	1.166	RhymeSpell/halt.WAV	RhymeSpell/stain.WAV
71.085	4.443	0	1	1.069	Tones/nullsilence.WAV	Tones/nullsilence.WAV
75.528	4.443	6	1	1.162	Tones/550800525.WAV	Tones/550800600.WAV
79.971	4.443	6	0	1.138	Tones/350825400.WAV	Tones/425825400.WAV
84.414	4.442	0	1	1.156	Tones/nullsilence.WAV	Tones/nullsilence.WAV
88.856	4.444	1	1	1.178	RhymeSpell/cure.WAV	RhymeSpell/sure.WAV
93.3	4.442	2	1	0.896	RhymeSpell/sleek.WAV	RhymeSpell/speak.WAV
97.742	4.443	0	1	1.426	Tones/nullsilence.WAV	Tones/nullsilence.WAV
102.185	4.443	4	1	1.086	RhymeSpell/trust.WAV	RhymeSpell/chalk.WAV
106.628	4.443	2	1	1.171	RhymeSpell/street.WAV	RhymeSpell/wheat.WAV
111.071	4.442	0	1	1.221	Tones/nullsilence.WAV	Tones/nullsilence.WAV
115.513	4.443	6	1	1.126	Tones/650475300.WAV	Tones/650475300.WAV
119.956	4.443	6	0	1.292	Tones/425675500.WAV	Tones/425750500.WAV
124.399	4.443	0	1	1.358	Tones/nullsilence.WAV	Tones/nullsilence.WAV
128.842	4.443	5	1	1.107	Tones/350.WAV	Tones/425.WAV
133.285	4.443	0	1	1.387	Tones/nullsilence.WAV	Tones/nullsilence.WAV
137.728	4.442	2	1	1.163	RhymeSpell/rear.WAV	RhymeSpell/mere.WAV
142.17	4.444	1	1	1.136	RhymeSpell/crown.WAV	RhymeSpell/town.WAV
146.614	4.442	3	1	1.2	RhymeSpell/sword.WAV	RhymeSpell/word.WAV
151.056	4.443	6	1	1.176	Tones/875575325.WAV	Tones/875575400.WAV
155.499	4.443	3	1	1.266	RhymeSpell/head.WAV	RhymeSpell/bead.WAV
159.942	4.443	0	1	1.366	Tones/nullsilence.WAV	Tones/nullsilence.WAV
164.385	4.443	5	1	1.148	Tones/850.WAV	Tones/850.WAV
168.828	4.442	0	1	1.512	Tones/nullsilence.WAV	Tones/nullsilence.WAV
173.27	4.443	6	1	1.18	Tones/725400775.WAV	Tones/650400775.WAV
177.713	4.443	2	1	1.117	RhymeSpell/size.WAV	RhymeSpell/wise.WAV
182.156	4.443	4	1	1.152	RhymeSpell/clash.WAV	RhymeSpell/worse.WAV
186.599	4.443	5	1	1.045	Tones/775.WAV	Tones/700.WAV
191.042	4.443	0	1	1.396	Tones/nullsilence.WAV	Tones/nullsilence.WAV
195.485	4.442	0	1	1.132	Tones/nullsilence.WAV	Tones/nullsilence.WAV
199.927	4.443	4	1	1.123	RhymeSpell/loose.WAV	RhymeSpell/drew.WAV
204.37	4.443	0	1	1.52	Tones/nullsilence.WAV	Tones/nullsilence.WAV
208.813	4.443	4	1	0.815	RhymeSpell/yeast.WAV	RhymeSpell/tooth.WAV
213.256	4.443	0	1	1.124	Tones/nullsilence.WAV	Tones/nullsilence.WAV
217.699	4.443	3	1	1.138	RhymeSpell/shove.WAV	RhymeSpell/wove.WAV
222.142	4.442	5	1	1.229	Tones/625.WAV	Tones/625.WAV
226.584	4.443	2	1	1.355	RhymeSpell/chair.WAV	RhymeSpell/scare.WAV
231.027	4.444	0	1	1.23	Tones/nullsilence.WAV	Tones/nullsilence.WAV
235.471	4.442	1	1	1.148	RhymeSpell/dad.WAV	RhymeSpell/sad.WAV
239.913	4.443	0	1	1.171	Tones/nullsilence.WAV	Tones/nullsilence.WAV
244.356	4.443	4	1	1.011	RhymeSpell/beef.WAV	RhymeSpell/keep.WAV
248.799	4.442	3	1	1.073	RhymeSpell/broad.WAV	RhymeSpell/toad.WAV
253.241	4.443	0	1	1.331	Tones/nullsilence.WAV	Tones/nullsilence.WAV
257.684	4.443	0	1	1.14	Tones/nullsilence.WAV	Tones/nullsilence.WAV
262.127	4.443	4	1	1.247	RhymeSpell/rail.WAV	RhymeSpell/fast.WAV
266.57	4.443	0	1	1.076	Tones/nullsilence.WAV	Tones/nullsilence.WAV
271.013	4.443	1	1	1.169	RhymeSpell/leg.WAV	RhymeSpell/peg.WAV
275.456	4.443	1	1	1.284	RhymeSpell/mule.WAV	RhymeSpell/rule.WAV
279.899	4.442	6	1	1.228	Tones/325500725.WAV	Tones/325500725.WAV
284.341	4.443	6	1	1.214	Tones/625450850.WAV	Tones/625450775.WAV
288.784	4.443	0	1	2.326	Tones/nullsilence.WAV	Tones/nullsilence.WAV
293.227	4.443	4	1	1.094	RhymeSpell/storm.WAV	RhymeSpell/chose.WAV
297.67	4.443	0	1	1.23	Tones/nullsilence.WAV	Tones/nullsilence.WAV
302.113	4.443	2	1	1.084	RhymeSpell/prize.WAV	RhymeSpell/rise.WAV
306.556	4.442	0	1	2.353	Tones/nullsilence.WAV	Tones/nullsilence.WAV
310.998	4.443	1	1	1.476	RhymeSpell/fought.WAV	RhymeSpell/sought.WAV
315.441	4.443	4	1	1.131	RhymeSpell/wage.WAV	RhymeSpell/spice.WAV
319.884	4.443	1	1	1.119	RhymeSpell/beast.WAV	RhymeSpell/least.WAV
324.327	4.443	5	1	1.191	Tones/800.WAV	Tones/800.WAV
328.77	4.443	5	0	1.264	Tones/375.WAV	Tones/450.WAV
333.213	4.442	0	1	1.289	Tones/nullsilence.WAV	Tones/nullsilence.WAV
337.655	4.443	4	1	1.018	RhymeSpell/dome.WAV	RhymeSpell/fool.WAV
342.098	4.443	0	1	1.405	Tones/nullsilence.WAV	Tones/nullsilence.WAV
346.541	4.443	1	1	1.307	RhymeSpell/grant.WAV	RhymeSpell/slant.WAV
350.984	4.443	1	1	1.043	RhymeSpell/numb.WAV	RhymeSpell/thumb.WAV
355.427	4.443	1	1	1.512	RhymeSpell/chess.WAV	RhymeSpell/press.WAV
359.87	4.443	6	1	1.148	Tones/875675300.WAV	Tones/875675300.WAV
364.313	4.442	3	1	0.988	RhymeSpell/damp.WAV	RhymeSpell/swamp.WAV
368.755	4.443	2	1	0.833	RhymeSpell/true.WAV	RhymeSpell/grew.WAV
373.198	4.443	0	1	1.374	Tones/nullsilence.WAV	Tones/nullsilence.WAV
377.641	4.443	5	1	1.425	Tones/650.WAV	Tones/575.WAV
382.084	4.443	3	1	1.22	RhymeSpell/shown.WAV	RhymeSpell/clown.WAV
386.527	4.443	4	1	3.121	RhymeSpell/paint.WAV	RhymeSpell/sigh.WAV
390.97	4.442	1	1	1.258	RhymeSpell/stone.WAV	RhymeSpell/zone.WAV
395.412	4.443	0	1	2.434	Tones/nullsilence.WAV	Tones/nullsilence.WAV
399.855	4.443	6	1	1.092	Tones/375750475.WAV	Tones/375750475.WAV
404.298	4.443	0	1	1.473	Tones/nullsilence.WAV	Tones/nullsilence.WAV
408.741	4.443	0	1	2.559	Tones/nullsilence.WAV	Tones/nullsilence.WAV
413.184	4.443	2	1	1.16	RhymeSpell/spear.WAV	RhymeSpell/sphere.WAV
417.627	4.442	0	1	1.108	Tones/nullsilence.WAV	Tones/nullsilence.WAV
422.069	4.443	6	1	1.185	Tones/375800525.WAV	Tones/375800525.WAV
426.512	4.443	2	1	1.199	RhymeSpell/pro.WAV	RhymeSpell/mow.WAV
430.955	4.443	0	1	1.268	Tones/nullsilence.WAV	Tones/nullsilence.WAV
435.398	4.443	4	1	1.361	RhymeSpell/home.WAV	RhymeSpell/form.WAV
439.841	4.443	3	1	1.689	RhymeSpell/smooth.WAV	RhymeSpell/booth.WAV
444.284	4.443	0	1	1.146	Tones/nullsilence.WAV	Tones/nullsilence.WAV
448.727	4.442	1	1	1.212	RhymeSpell/grief.WAV	RhymeSpell/thief.WAV
453.169	4.443	2	1	1.101	RhymeSpell/top.WAV	RhymeSpell/swap.WAV
457.612	4.443	5	1	0.941	Tones/300.WAV	Tones/375.WAV
462.055	4.443	0	1	1.566	Tones/nullsilence.WAV	Tones/nullsilence.WAV
466.498	4.443	5	1	1.319	Tones/575.WAV	Tones/650.WAV
470.941	4.443	0	1	1.181	Tones/nullsilence.WAV	Tones/nullsilence.WAV
475.384	4.438	4	1	1.286	RhymeSpell/dream.WAV	RhymeSpell/blame.WAV
