onset	duration	trial_type	accuracy	response_time	stim1_file	stim2_file
0.0	4.443	3	1	1.196	Semantic/handle.WAV	Semantic/depth.WAV
4.443	4.443	2	0	1.153	Semantic/yarn.WAV	Semantic/knit.WAV
8.886	4.442	3	1	1.133	Semantic/dessert.WAV	Semantic/bony.WAV
13.328	4.443	0	1	1.184	Tones/nullsilence.WAV	Tones/nullsilence.WAV
17.771	4.443	2	1	1.05	Semantic/dish.WAV	Semantic/plate.WAV
22.214	4.443	4	1	1.232	Tones/675.WAV	Tones/600.WAV
26.657	4.443	0	1	1.33	Tones/nullsilence.WAV	Tones/nullsilence.WAV
31.1	4.443	4	1	1.235	Tones/600.WAV	Tones/600.WAV
35.543	4.443	4	1	1.295	Tones/325.WAV	Tones/325.WAV
39.986	4.442	4	1	1.615	Tones/350.WAV	Tones/425.WAV
44.428	4.444	0	1	1.792	Tones/nullsilence.WAV	Tones/nullsilence.WAV
48.872	4.442	4	1	1.324	Tones/850.WAV	Tones/850.WAV
53.314	4.443	0	1	1.389	Tones/nullsilence.WAV	Tones/nullsilence.WAV
57.757	4.443	3	1	0.952	Semantic/flush.WAV	Semantic/cliff.WAV
62.2	4.443	0	1	1.522	Tones/nullsilence.WAV	Tones/nullsilence.WAV
66.643	4.442	1	1	1.48	Semantic/ape.WAV	Semantic/monkey.WAV
71.085	4.443	1	1	1.53	Semantic/spoon.WAV	Semantic/fork.WAV
75.528	4.443	0	1	1.323	Tones/nullsilence.WAV	Tones/nullsilence.WAV
79.971	4.443	1	0	1.473	Semantic/awake.WAV	Semantic/asleep.WAV
84.414	4.443	0	1	1.437	Tones/nullsilence.WAV	Tones/nullsilence.WAV
88.857	4.443	2	1	1.457	Semantic/senate.WAV	Semantic/congress.WAV
93.3	4.442	0	1	2.153	Tones/nullsilence.WAV	Tones/nullsilence.WAV
97.742	4.443	3	1	1.135	Semantic/steam.WAV	Semantic/gap.WAV
102.185	4.443	0	1	2.213	Tones/nullsilence.WAV	Tones/nullsilence.WAV
106.628	4.443	2	1	1.3	Semantic/checkers.WAV	Semantic/chess.WAV
111.071	4.443	5	1	1.173	Tones/425600750.WAV	Tones/425600750.WAV
115.514	4.443	0	1	1.225	Tones/nullsilence.WAV	Tones/nullsilence.WAV
119.957	4.442	1	1	1.367	Semantic/rodent.WAV	Semantic/rat.WAV
124.399	4.443	2	1	1.132	Semantic/robber.WAV	Semantic/thief.WAV
128.842	4.443	3	0	1.787	Semantic/bone.WAV	Semantic/mountain.WAV
133.285	4.443	4	1	1.14	Tones/775.WAV	Tones/700.WAV
137.728	4.443	2	1	1.9	Semantic/purse.WAV	Semantic/wallet.WAV
142.171	4.443	0	1	1.303	Tones/nullsilence.WAV	Tones/nullsilence.WAV
146.614	4.443	2	0	1.645	Semantic/sunny.WAV	Semantic/cloudy.WAV
151.057	4.442	2	0	1.632	Semantic/hide.WAV	Semantic/seek.WAV
155.499	4.443	0	1	3.142	Tones/nullsilence.WAV	Tones/nullsilence.WAV
159.942	4.443	1	1	1.256	Semantic/mom.WAV	Semantic/dad.WAV
164.385	4.443	4	0	1.911	Tones/625.WAV	Tones/625.WAV
168.828	4.443	3	1	1.252	Semantic/joke.WAV	Semantic/chart.WAV
173.271	4.443	3	1	1.298	Semantic/heavy.WAV	Semantic/wish.WAV
177.714	4.442	3	1	1.862	Semantic/plug.WAV	Semantic/belly.WAV
182.156	4.443	0	0	n/a	Tones/nullsilence.WAV	Tones/nullsilence.WAV
186.599	4.443	3	1	1.842	Semantic/steer.WAV	Semantic/toss.WAV
191.042	4.443	2	1	1.116	Semantic/minus.WAV	Semantic/subtract.WAV
195.485	4.443	0	1	1.358	Tones/nullsilence.WAV	Tones/nullsilence.WAV
199.928	4.443	4	1	1.491	Tones/800.WAV	Tones/800.WAV
204.371	4.442	2	1	1.642	Semantic/fingers.WAV	Semantic/hands.WAV
208.813	4.443	4	1	1.542	Tones/375.WAV	Tones/450.WAV
213.256	4.443	0	1	1.64	Tones/nullsilence.WAV	Tones/nullsilence.WAV
217.699	4.443	5	1	1.206	Tones/550800525.WAV	Tones/550800600.WAV
222.142	4.443	0	1	1.775	Tones/nullsilence.WAV	Tones/nullsilence.WAV
226.585	4.443	4	1	1.282	Tones/650.WAV	Tones/575.WAV
231.028	4.442	0	1	2.038	Tones/nullsilence.WAV	Tones/nullsilence.WAV
235.47	4.443	3	0	2.127	Semantic/forgave.WAV	Semantic/maiden.WAV
239.913	4.443	0	1	2.789	Tones/nullsilence.WAV	Tones/nullsilence.WAV
244.356	4.443	1	1	1.356	Semantic/supper.WAV	Semantic/dinner.WAV
248.799	4.443	0	1	3.286	Tones/nullsilence.WAV	Tones/nullsilence.WAV
253.242	4.443	3	1	1.426	Semantic/flow.WAV	Semantic/teaching.WAV
257.685	4.443	3	1	1.192	Semantic/spongy.WAV	Semantic/madam.WAV
262.128	4.442	0	1	2.328	Tones/nullsilence.WAV	Tones/nullsilence.WAV
266.57	4.443	5	0	1.258	Tones/350825400.WAV	Tones/425825400.WAV
271.013	4.443	5	1	1.036	Tones/650475300.WAV	Tones/650475300.WAV
275.456	4.443	1	1	1.392	Semantic/hammer.WAV	Semantic/nail.WAV
279.899	4.443	2	0	1.598	Semantic/earth.WAV	Semantic/ground.WAV
284.342	4.443	5	0	1.482	Tones/425675500.WAV	Tones/425750500.WAV
288.785	4.442	0	1	1.392	Tones/nullsilence.WAV	Tones/nullsilence.WAV
293.227	4.443	4	1	1.289	Tones/300.WAV	Tones/375.WAV
297.67	4.443	0	1	2.221	Tones/nullsilence.WAV	Tones/nullsilence.WAV
302.113	4.443	2	0	2.283	Semantic/teach.WAV	Semantic/learn.WAV
306.556	4.443	0	0	n/a	Tones/nullsilence.WAV	Tones/nullsilence.WAV
310.999	4.443	1	1	1.863	Semantic/ship.WAV	Semantic/boat.WAV
315.442	4.442	0	1	1.613	Tones/nullsilence.WAV	Tones/nullsilence.WAV
319.884	4.443	1	0	1.083	Semantic/life.WAV	Semantic/death.WAV
324.327	4.443	0	1	2.318	Tones/nullsilence.WAV	Tones/nullsilence.WAV
328.77	4.443	2	1	1.897	Semantic/choir.WAV	Semantic/chorus.WAV
333.213	4.443	4	1	1.348	Tones/575.WAV	Tones/650.WAV
337.656	4.443	0	1	1.233	Tones/nullsilence.WAV	Tones/nullsilence.WAV
342.099	4.442	3	1	1.69	Semantic/note.WAV	Semantic/press.WAV
346.541	4.443	5	1	1.099	Tones/875575325.WAV	Tones/875575400.WAV
350.984	4.443	5	1	1.479	Tones/725400775.WAV	Tones/650400775.WAV
355.427	4.443	1	1	1.424	Semantic/jigsaw.WAV	Semantic/puzzle.WAV
359.87	4.443	0	1	1.641	Tones/nullsilence.WAV	Tones/nullsilence.WAV
364.313	4.443	1	1	0.854	Semantic/film.WAV	Semantic/movie.WAV
368.756	4.442	0	1	1.528	Tones/nullsilence.WAV	Tones/nullsilence.WAV
373.198	4.443	4	1	1.71	Tones/700.WAV	Tones/700.WAV
377.641	4.443	5	1	1.178	Tones/325500725.WAV	Tones/325500725.WAV
382.084	4.443	5	1	1.623	Tones/625450850.WAV	Tones/625450775.WAV
386.527	4.443	0	1	3.048	Tones/nullsilence.WAV	Tones/nullsilence.WAV
390.97	4.443	5	1	1.25	Tones/875675300.WAV	Tones/875675300.WAV
395.413	4.443	5	1	0.76	Tones/375750475.WAV	Tones/375750475.WAV
399.856	4.439	0	1	1.048	Tones/nullsilence.WAV	Tones/nullsilence.WAV
