onset	duration	trial_type	accuracy	response_time	stim1_file	stim2_file
0.0	4.443	3	1	0.905	RhymeSpell/mouth.bmp	RhymeSpell/youth1.bmp
4.443	4.443	2	1	0.927	RhymeSpell/tone.bmp	RhymeSpell/known1.bmp
8.886	4.443	5	1	1.113	Symbols/t.bmp	Symbols/g2.bmp
13.329	4.443	0	1	0.875	RhymeSpell/null.bmp	RhymeSpell/null.bmp
17.772	4.443	3	0	0.969	RhymeSpell/pool.bmp	RhymeSpell/wool2.bmp
22.215	4.442	0	1	0.951	RhymeSpell/null.bmp	RhymeSpell/null.bmp
26.657	4.443	5	1	0.987	Symbols/w.bmp	Symbols/w2.bmp
31.1	4.443	5	1	1.017	Symbols/u.bmp	Symbols/u2.bmp
35.543	4.443	1	1	1.094	RhymeSpell/meal.bmp	RhymeSpell/seal1.bmp
39.986	4.443	0	1	0.791	RhymeSpell/null.bmp	RhymeSpell/null.bmp
44.429	4.443	3	0	1.181	RhymeSpell/low.bmp	RhymeSpell/vow1.bmp
48.872	4.442	6	1	1.033	Symbols/mfc.bmp	Symbols/mfc1.bmp
53.314	4.443	0	1	0.778	RhymeSpell/null.bmp	RhymeSpell/null.bmp
57.757	4.443	0	1	1.111	RhymeSpell/null.bmp	RhymeSpell/null.bmp
62.2	4.443	4	1	1.093	RhymeSpell/wrist.bmp	RhymeSpell/friend2.bmp
66.643	4.443	4	1	1.119	RhymeSpell/halt.bmp	RhymeSpell/stain2.bmp
71.086	4.443	0	1	1.015	RhymeSpell/null.bmp	RhymeSpell/null.bmp
75.529	4.443	6	1	0.914	Symbols/crs.bmp	Symbols/cre2.bmp
79.972	4.442	6	1	0.932	Symbols/pcf.bmp	Symbols/kcf2.bmp
84.414	4.443	0	1	0.934	RhymeSpell/null.bmp	RhymeSpell/null.bmp
88.857	4.443	1	1	1.119	RhymeSpell/cure.bmp	RhymeSpell/sure2.bmp
93.3	4.443	2	1	1.149	RhymeSpell/sleek.bmp	RhymeSpell/speak1.bmp
97.743	4.443	0	1	1.178	RhymeSpell/null.bmp	RhymeSpell/null.bmp
102.186	4.443	4	1	0.993	RhymeSpell/trust.bmp	RhymeSpell/chalk2.bmp
106.629	4.442	2	1	1.085	RhymeSpell/street.bmp	RhymeSpell/wheat2.bmp
111.071	4.443	0	1	0.84	RhymeSpell/null.bmp	RhymeSpell/null.bmp
115.514	4.443	6	1	0.866	Symbols/van.bmp	Symbols/van2.bmp
119.957	4.443	6	1	0.931	Symbols/jzd.bmp	Symbols/jbd2.bmp
124.4	4.443	0	1	0.438	RhymeSpell/null.bmp	RhymeSpell/null.bmp
128.843	4.443	5	1	1.193	Symbols/s.bmp	Symbols/j2.bmp
133.286	4.442	0	1	1.086	RhymeSpell/null.bmp	RhymeSpell/null.bmp
137.728	4.443	2	1	1.108	RhymeSpell/rear.bmp	RhymeSpell/mere1.bmp
142.171	4.443	1	1	1.044	RhymeSpell/crown.bmp	RhymeSpell/town2.bmp
146.614	4.443	3	1	1.121	RhymeSpell/sword.bmp	RhymeSpell/word2.bmp
151.057	4.443	6	1	0.976	Symbols/ksg.bmp	Symbols/ksj2.bmp
155.5	4.443	3	0	0.923	RhymeSpell/head.bmp	RhymeSpell/bead2.bmp
159.943	4.442	0	1	1.562	RhymeSpell/null.bmp	RhymeSpell/null.bmp
164.385	4.443	5	1	0.955	Symbols/l.bmp	Symbols/l2.bmp
168.828	4.443	0	1	1.168	RhymeSpell/null.bmp	RhymeSpell/null.bmp
173.271	4.443	6	1	1.133	Symbols/uab.bmp	Symbols/iab1.bmp
177.714	4.443	2	1	1.068	RhymeSpell/size.bmp	RhymeSpell/wise2.bmp
182.157	4.443	4	1	0.988	RhymeSpell/clash.bmp	RhymeSpell/worse1.bmp
186.6	4.442	5	1	1.303	Symbols/c.bmp	Symbols/v1.bmp
191.042	4.443	0	1	1.181	RhymeSpell/null.bmp	RhymeSpell/null.bmp
195.485	4.443	0	1	1.415	RhymeSpell/null.bmp	RhymeSpell/null.bmp
199.928	4.443	4	1	1.033	RhymeSpell/loose.bmp	RhymeSpell/drew1.bmp
204.371	4.443	0	1	1.617	RhymeSpell/null.bmp	RhymeSpell/null.bmp
208.814	4.443	4	1	1.031	RhymeSpell/yeast.bmp	RhymeSpell/tooth1.bmp
213.257	4.443	0	1	0.951	RhymeSpell/null.bmp	RhymeSpell/null.bmp
217.7	4.442	3	1	1.473	RhymeSpell/shove.bmp	RhymeSpell/wove1.bmp
222.142	4.443	5	1	1.02	Symbols/n.bmp	Symbols/n1.bmp
226.585	4.443	2	1	1.085	RhymeSpell/chair.bmp	RhymeSpell/scare1.bmp
231.028	4.443	0	1	0.913	RhymeSpell/null.bmp	RhymeSpell/null.bmp
235.471	4.443	1	1	0.977	RhymeSpell/dad.bmp	RhymeSpell/sad1.bmp
239.914	4.443	0	1	0.306	RhymeSpell/null.bmp	RhymeSpell/null.bmp
244.357	4.442	4	1	1.635	RhymeSpell/beef.bmp	RhymeSpell/keep2.bmp
248.799	4.443	3	1	1.259	RhymeSpell/broad.bmp	RhymeSpell/toad1.bmp
253.242	4.443	0	1	0.931	RhymeSpell/null.bmp	RhymeSpell/null.bmp
257.685	4.443	0	1	1.034	RhymeSpell/null.bmp	RhymeSpell/null.bmp
262.128	4.443	4	1	1.227	RhymeSpell/rail.bmp	RhymeSpell/fast1.bmp
266.571	4.443	0	1	0.927	RhymeSpell/null.bmp	RhymeSpell/null.bmp
271.014	4.442	1	1	0.895	RhymeSpell/leg.bmp	RhymeSpell/peg2.bmp
275.456	4.443	1	1	1.172	RhymeSpell/mule.bmp	RhymeSpell/rule2.bmp
279.899	4.443	6	1	1.029	Symbols/upw.bmp	Symbols/upw1.bmp
284.342	4.443	6	1	1.144	Symbols/myh.bmp	Symbols/myl1.bmp
288.785	4.443	0	1	1.023	RhymeSpell/null.bmp	RhymeSpell/null.bmp
293.228	4.443	4	1	1.025	RhymeSpell/storm.bmp	RhymeSpell/chose2.bmp
297.671	4.442	0	1	0.833	RhymeSpell/null.bmp	RhymeSpell/null.bmp
302.113	4.443	2	1	1.082	RhymeSpell/prize.bmp	RhymeSpell/rise1.bmp
306.556	4.443	0	1	0.856	RhymeSpell/null.bmp	RhymeSpell/null.bmp
310.999	4.443	1	1	0.93	RhymeSpell/fought.bmp	RhymeSpell/sought2.bmp
315.442	4.443	4	1	0.815	RhymeSpell/wage.bmp	RhymeSpell/spice1.bmp
319.885	4.443	1	1	0.932	RhymeSpell/beast.bmp	RhymeSpell/least2.bmp
324.328	4.443	5	1	1.458	Symbols/i.bmp	Symbols/i2.bmp
328.771	4.442	5	1	0.879	Symbols/r.bmp	Symbols/z2.bmp
333.213	4.443	0	1	0.885	RhymeSpell/null.bmp	RhymeSpell/null.bmp
337.656	4.443	4	1	0.973	RhymeSpell/dome.bmp	RhymeSpell/fool2.bmp
342.099	4.443	0	1	1.007	RhymeSpell/null.bmp	RhymeSpell/null.bmp
346.542	4.443	1	1	0.947	RhymeSpell/grant.bmp	RhymeSpell/slant1.bmp
350.985	4.443	1	1	0.933	RhymeSpell/numb.bmp	RhymeSpell/thumb2.bmp
355.428	4.442	1	1	1.049	RhymeSpell/chess.bmp	RhymeSpell/press2.bmp
359.87	4.443	6	1	0.815	Symbols/hio.bmp	Symbols/hio2.bmp
364.313	4.443	3	1	1.177	RhymeSpell/damp.bmp	RhymeSpell/swamp1.bmp
368.756	4.443	2	1	0.952	RhymeSpell/true.bmp	RhymeSpell/grew2.bmp
373.199	4.443	0	1	1.058	RhymeSpell/null.bmp	RhymeSpell/null.bmp
377.642	4.443	5	1	0.903	Symbols/p.bmp	Symbols/s1.bmp
382.085	4.442	3	1	1.265	RhymeSpell/shown.bmp	RhymeSpell/clown2.bmp
386.527	4.443	4	1	0.962	RhymeSpell/paint.bmp	RhymeSpell/sigh2.bmp
390.97	4.443	1	1	0.976	RhymeSpell/stone.bmp	RhymeSpell/zone1.bmp
395.413	4.443	0	1	0.934	RhymeSpell/null.bmp	RhymeSpell/null.bmp
399.856	4.443	6	1	0.885	Symbols/mey.bmp	Symbols/mey2.bmp
404.299	4.443	0	1	2.331	RhymeSpell/null.bmp	RhymeSpell/null.bmp
408.742	4.442	0	1	1.108	RhymeSpell/null.bmp	RhymeSpell/null.bmp
413.184	4.443	2	0	1.257	RhymeSpell/spear.bmp	RhymeSpell/sphere2.bmp
417.627	4.443	0	1	0.907	RhymeSpell/null.bmp	RhymeSpell/null.bmp
422.07	4.443	6	1	0.942	Symbols/odt.bmp	Symbols/odt2.bmp
426.513	4.443	2	1	1.026	RhymeSpell/pro.bmp	RhymeSpell/mow2.bmp
430.956	4.443	0	1	2.327	RhymeSpell/null.bmp	RhymeSpell/null.bmp
435.399	4.442	4	1	1.265	RhymeSpell/home.bmp	RhymeSpell/form2.bmp
439.841	4.443	3	0	1.089	RhymeSpell/smooth.bmp	RhymeSpell/booth2.bmp
444.284	4.443	0	1	0.71	RhymeSpell/null.bmp	RhymeSpell/null.bmp
448.727	4.443	1	1	0.861	RhymeSpell/grief.bmp	RhymeSpell/thief1.bmp
453.17	4.443	2	1	1.002	RhymeSpell/top.bmp	RhymeSpell/swap2.bmp
457.613	4.443	5	1	1.085	Symbols/v.bmp	Symbols/h1.bmp
462.056	4.443	0	1	0.273	RhymeSpell/null.bmp	RhymeSpell/null.bmp
466.499	4.442	5	1	0.758	Symbols/h.bmp	Symbols/c2.bmp
470.941	4.443	0	1	0.357	RhymeSpell/null.bmp	RhymeSpell/null.bmp
475.384	4.439	4	1	0.731	RhymeSpell/dream.bmp	RhymeSpell/blame1.bmp
