onset	duration	trial_type	accuracy	response_time	stim1_file	stim2_file
0.0	4.442	2	1	2.206	RhymeSpell/crawl.bmp	RhymeSpell/ball1.bmp
4.442	4.443	2	1	1.539	RhymeSpell/moan.bmp	RhymeSpell/bone1.bmp
8.885	4.443	0	1	1.299	RhymeSpell/null.bmp	RhymeSpell/null.bmp
13.328	4.443	3	1	1.981	RhymeSpell/harm.bmp	RhymeSpell/warm2.bmp
17.771	4.443	0	1	1.267	RhymeSpell/null.bmp	RhymeSpell/null.bmp
22.214	4.443	3	1	1.859	RhymeSpell/dull.bmp	RhymeSpell/pull2.bmp
26.657	4.443	5	1	1.644	Symbols/m.bmp	Symbols/m2.bmp
31.1	4.442	1	1	1.843	RhymeSpell/dime.bmp	RhymeSpell/lime1.bmp
35.542	4.443	0	1	1.443	RhymeSpell/null.bmp	RhymeSpell/null.bmp
39.985	4.443	1	1	1.603	RhymeSpell/thread.bmp	RhymeSpell/dread2.bmp
44.428	4.443	4	1	1.615	RhymeSpell/dash.bmp	RhymeSpell/brow1.bmp
48.871	4.443	2	1	2.546	RhymeSpell/though.bmp	RhymeSpell/blow2.bmp
53.314	4.443	2	1	1.691	RhymeSpell/greet.bmp	RhymeSpell/neat1.bmp
57.757	4.443	0	1	1.958	RhymeSpell/null.bmp	RhymeSpell/null.bmp
62.2	4.442	1	1	1.457	RhymeSpell/mad.bmp	RhymeSpell/pad2.bmp
66.642	4.443	0	1	1.652	RhymeSpell/null.bmp	RhymeSpell/null.bmp
71.085	4.443	5	1	1.455	Symbols/z.bmp	Symbols/t1.bmp
75.528	4.443	0	1	1.78	RhymeSpell/null.bmp	RhymeSpell/null.bmp
79.971	4.443	3	1	2.111	RhymeSpell/tough.bmp	RhymeSpell/cough2.bmp
84.414	4.442	6	1	1.54	Symbols/lfa.bmp	Symbols/lfa1.bmp
88.856	4.443	1	1	1.68	RhymeSpell/drum.bmp	RhymeSpell/gum1.bmp
93.299	4.443	0	1	1.579	RhymeSpell/null.bmp	RhymeSpell/null.bmp
97.742	4.443	5	1	1.849	Symbols/j.bmp	Symbols/o1.bmp
102.185	4.443	5	0	n/a	Symbols/b.bmp	Symbols/b2.bmp
106.628	4.443	2	1	2.261	RhymeSpell/comb.bmp	RhymeSpell/chrome2.bmp
111.071	4.442	0	1	1.972	RhymeSpell/null.bmp	RhymeSpell/null.bmp
115.513	4.443	3	1	2.198	RhymeSpell/couch.bmp	RhymeSpell/touch1.bmp
119.956	4.443	0	1	1.906	RhymeSpell/null.bmp	RhymeSpell/null.bmp
124.399	4.443	6	1	1.555	Symbols/zti.bmp	Symbols/zvi1.bmp
128.842	4.443	0	0	n/a	RhymeSpell/null.bmp	RhymeSpell/null.bmp
133.285	4.443	3	1	2.05	RhymeSpell/gull.bmp	RhymeSpell/bull2.bmp
137.728	4.443	4	1	2.248	RhymeSpell/goes.bmp	RhymeSpell/lap2.bmp
142.171	4.442	5	1	1.951	Symbols/y.bmp	Symbols/y1.bmp
146.613	4.443	1	1	2.142	RhymeSpell/pay.bmp	RhymeSpell/play2.bmp
151.056	4.443	0	1	1.888	RhymeSpell/null.bmp	RhymeSpell/null.bmp
155.499	4.443	4	1	2.47	RhymeSpell/staff.bmp	RhymeSpell/gain2.bmp
159.942	4.443	5	1	1.733	Symbols/a.bmp	Symbols/a1.bmp
164.385	4.443	0	1	2.129	RhymeSpell/null.bmp	RhymeSpell/null.bmp
168.828	4.442	4	1	2.475	RhymeSpell/scale.bmp	RhymeSpell/fly2.bmp
173.27	4.443	0	0	n/a	RhymeSpell/null.bmp	RhymeSpell/null.bmp
177.713	4.443	6	1	1.591	Symbols/drp.bmp	Symbols/drn1.bmp
182.156	4.443	0	1	2.529	RhymeSpell/null.bmp	RhymeSpell/null.bmp
186.599	4.443	1	0	2.519	RhymeSpell/hint.bmp	RhymeSpell/print1.bmp
191.042	4.443	0	1	2.825	RhymeSpell/null.bmp	RhymeSpell/null.bmp
195.485	4.442	6	1	2.04	Symbols/ntv.bmp	Symbols/ntv2.bmp
199.927	4.443	0	1	1.868	RhymeSpell/null.bmp	RhymeSpell/null.bmp
204.37	4.443	5	1	1.553	Symbols/e.bmp	Symbols/e1.bmp
208.813	4.443	0	1	1.599	RhymeSpell/null.bmp	RhymeSpell/null.bmp
213.256	4.443	3	1	2.584	RhymeSpell/foot.bmp	RhymeSpell/hoot1.bmp
217.699	4.443	0	1	1.934	RhymeSpell/null.bmp	RhymeSpell/null.bmp
222.142	4.442	3	1	3.08	RhymeSpell/glove.bmp	RhymeSpell/drove2.bmp
226.584	4.443	0	1	2.309	RhymeSpell/null.bmp	RhymeSpell/null.bmp
231.027	4.443	2	1	1.579	RhymeSpell/trade.bmp	RhymeSpell/paid2.bmp
235.47	4.443	3	0	2.077	RhymeSpell/moth.bmp	RhymeSpell/both2.bmp
239.913	4.443	4	0	n/a	RhymeSpell/start.bmp	RhymeSpell/pure2.bmp
244.356	4.443	6	1	2.657	Symbols/gbk.bmp	Symbols/rbk2.bmp
248.799	4.443	0	1	1.915	RhymeSpell/null.bmp	RhymeSpell/null.bmp
253.242	4.442	5	1	2.042	Symbols/f.bmp	Symbols/f1.bmp
257.684	4.443	0	1	1.591	RhymeSpell/null.bmp	RhymeSpell/null.bmp
262.127	4.443	6	1	1.612	Symbols/zsj.bmp	Symbols/wsj1.bmp
266.57	4.443	0	1	2.458	RhymeSpell/null.bmp	RhymeSpell/null.bmp
271.013	4.443	1	1	2.046	RhymeSpell/wall.bmp	RhymeSpell/tall1.bmp
275.456	4.443	0	1	2.037	RhymeSpell/null.bmp	RhymeSpell/null.bmp
279.899	4.442	2	0	2.095	RhymeSpell/glad.bmp	RhymeSpell/plaid1.bmp
284.341	4.443	0	1	1.876	RhymeSpell/null.bmp	RhymeSpell/null.bmp
288.784	4.443	5	1	1.464	Symbols/o.bmp	Symbols/d1.bmp
293.227	4.443	0	1	1.674	RhymeSpell/null.bmp	RhymeSpell/null.bmp
297.67	4.443	4	1	2.239	RhymeSpell/strut.bmp	RhymeSpell/glint2.bmp
302.113	4.443	2	1	2.019	RhymeSpell/sheet.bmp	RhymeSpell/heat1.bmp
306.556	4.442	6	0	1.463	Symbols/lwy.bmp	Symbols/lwy1.bmp
310.998	4.443	2	1	2.345	RhymeSpell/whom.bmp	RhymeSpell/womb1.bmp
315.441	4.443	4	1	2.211	RhymeSpell/spare.bmp	RhymeSpell/cow1.bmp
319.884	4.443	0	1	3.177	RhymeSpell/null.bmp	RhymeSpell/null.bmp
324.327	4.443	3	1	2.147	RhymeSpell/fat.bmp	RhymeSpell/swat2.bmp
328.77	4.443	4	1	2.159	RhymeSpell/team.bmp	RhymeSpell/brief2.bmp
333.213	4.442	0	1	2.78	RhymeSpell/null.bmp	RhymeSpell/null.bmp
337.655	4.443	5	1	2.266	Symbols/k.bmp	Symbols/k1.bmp
342.098	4.443	0	1	1.311	RhymeSpell/null.bmp	RhymeSpell/null.bmp
346.541	4.443	3	0	2.307	RhymeSpell/bad.bmp	RhymeSpell/wad2.bmp
350.984	4.443	1	1	1.498	RhymeSpell/glare.bmp	RhymeSpell/share1.bmp
355.427	4.443	0	1	1.609	RhymeSpell/null.bmp	RhymeSpell/null.bmp
359.87	4.443	1	1	2.197	RhymeSpell/cold.bmp	RhymeSpell/told1.bmp
364.313	4.442	6	1	1.147	Symbols/lik.bmp	Symbols/lik1.bmp
368.755	4.443	1	1	1.696	RhymeSpell/dawn.bmp	RhymeSpell/lawn1.bmp
373.198	4.443	1	1	1.896	RhymeSpell/broke.bmp	RhymeSpell/joke1.bmp
377.641	4.443	4	1	1.244	RhymeSpell/craft.bmp	RhymeSpell/young1.bmp
382.084	4.443	0	1	1.647	RhymeSpell/null.bmp	RhymeSpell/null.bmp
386.527	4.443	3	0	2.287	RhymeSpell/hull.bmp	RhymeSpell/full1.bmp
390.97	4.442	3	0	2.076	RhymeSpell/freight.bmp	RhymeSpell/height2.bmp
395.412	4.443	5	1	1.545	Symbols/g.bmp	Symbols/p2.bmp
399.855	4.443	2	0	2.321	RhymeSpell/stool.bmp	RhymeSpell/ghoul1.bmp
404.298	4.443	2	1	1.712	RhymeSpell/hoe.bmp	RhymeSpell/throw2.bmp
408.741	4.443	0	1	1.298	RhymeSpell/null.bmp	RhymeSpell/null.bmp
413.184	4.443	6	1	1.529	Symbols/one.bmp	Symbols/one2.bmp
417.627	4.442	3	1	1.663	RhymeSpell/cost.bmp	RhymeSpell/ghost2.bmp
422.069	4.443	0	1	2.281	RhymeSpell/null.bmp	RhymeSpell/null.bmp
426.512	4.443	6	1	1.587	Symbols/hvj.bmp	Symbols/hvj1.bmp
430.955	4.443	2	1	1.507	RhymeSpell/gas.bmp	RhymeSpell/pass1.bmp
435.398	4.443	3	1	2.078	RhymeSpell/blood.bmp	RhymeSpell/wood1.bmp
439.841	4.443	0	1	2.485	RhymeSpell/null.bmp	RhymeSpell/null.bmp
444.284	4.442	4	1	1.64	RhymeSpell/vend.bmp	RhymeSpell/space1.bmp
448.726	4.443	2	1	1.778	RhymeSpell/choose.bmp	RhymeSpell/lose2.bmp
453.169	4.443	6	1	1.348	Symbols/rbe.bmp	Symbols/rte1.bmp
457.612	4.443	0	1	1.533	RhymeSpell/null.bmp	RhymeSpell/null.bmp
462.055	4.443	6	1	1.715	Symbols/wug.bmp	Symbols/wyg2.bmp
466.498	4.443	5	1	1.826	Symbols/d.bmp	Symbols/r2.bmp
470.941	4.442	0	1	2.083	RhymeSpell/null.bmp	RhymeSpell/null.bmp
475.383	4.439	0	1	1.868	RhymeSpell/null.bmp	RhymeSpell/null.bmp
