onset	duration	trial_type	accuracy	response_time	stim1_file	stim2_file
0.0	4.443	2	1	1.805	RhymeSpell/crawl.bmp	RhymeSpell/ball1.bmp
4.443	4.443	2	1	1.707	RhymeSpell/moan.bmp	RhymeSpell/bone1.bmp
8.886	4.443	0	1	1.369	RhymeSpell/null.bmp	RhymeSpell/null.bmp
13.329	4.443	3	1	1.823	RhymeSpell/harm.bmp	RhymeSpell/warm2.bmp
17.772	4.442	0	1	0.959	RhymeSpell/null.bmp	RhymeSpell/null.bmp
22.214	4.443	3	1	1.495	RhymeSpell/dull.bmp	RhymeSpell/pull2.bmp
26.657	4.443	5	0	1.746	Symbols/m.bmp	Symbols/m2.bmp
31.1	4.443	1	0	2.216	RhymeSpell/dime.bmp	RhymeSpell/lime1.bmp
35.543	4.443	0	1	1.219	RhymeSpell/null.bmp	RhymeSpell/null.bmp
39.986	4.443	1	1	1.701	RhymeSpell/thread.bmp	RhymeSpell/dread2.bmp
44.429	4.442	4	1	1.358	RhymeSpell/dash.bmp	RhymeSpell/brow1.bmp
48.871	4.443	2	1	1.811	RhymeSpell/though.bmp	RhymeSpell/blow2.bmp
53.314	4.443	2	1	1.571	RhymeSpell/greet.bmp	RhymeSpell/neat1.bmp
57.757	4.443	0	1	1.572	RhymeSpell/null.bmp	RhymeSpell/null.bmp
62.2	4.443	1	0	1.567	RhymeSpell/mad.bmp	RhymeSpell/pad2.bmp
66.643	4.443	0	1	1.713	RhymeSpell/null.bmp	RhymeSpell/null.bmp
71.086	4.442	5	1	2.085	Symbols/z.bmp	Symbols/t1.bmp
75.528	4.443	0	1	1.992	RhymeSpell/null.bmp	RhymeSpell/null.bmp
79.971	4.443	3	0	1.669	RhymeSpell/tough.bmp	RhymeSpell/cough2.bmp
84.414	4.443	6	1	1.939	Symbols/lfa.bmp	Symbols/lfa1.bmp
88.857	4.443	1	1	2.248	RhymeSpell/drum.bmp	RhymeSpell/gum1.bmp
93.3	4.443	0	1	1.604	RhymeSpell/null.bmp	RhymeSpell/null.bmp
97.743	4.443	5	1	1.536	Symbols/j.bmp	Symbols/o1.bmp
102.186	4.442	5	1	1.856	Symbols/b.bmp	Symbols/b2.bmp
106.628	4.443	2	0	1.827	RhymeSpell/comb.bmp	RhymeSpell/chrome2.bmp
111.071	4.443	0	1	1.003	RhymeSpell/null.bmp	RhymeSpell/null.bmp
115.514	4.443	3	1	2.807	RhymeSpell/couch.bmp	RhymeSpell/touch1.bmp
119.957	4.443	0	1	1.15	RhymeSpell/null.bmp	RhymeSpell/null.bmp
124.4	4.443	6	1	2.499	Symbols/zti.bmp	Symbols/zvi1.bmp
128.843	4.442	0	1	0.689	RhymeSpell/null.bmp	RhymeSpell/null.bmp
133.285	4.443	3	0	1.745	RhymeSpell/gull.bmp	RhymeSpell/bull2.bmp
137.728	4.443	4	1	2.048	RhymeSpell/goes.bmp	RhymeSpell/lap2.bmp
142.171	4.443	5	0	1.952	Symbols/y.bmp	Symbols/y1.bmp
146.614	4.443	1	0	2.805	RhymeSpell/pay.bmp	RhymeSpell/play2.bmp
151.057	4.443	0	0	n/a	RhymeSpell/null.bmp	RhymeSpell/null.bmp
155.5	4.443	4	1	1.947	RhymeSpell/staff.bmp	RhymeSpell/gain2.bmp
159.943	4.442	5	1	1.261	Symbols/a.bmp	Symbols/a1.bmp
164.385	4.443	0	1	1.117	RhymeSpell/null.bmp	RhymeSpell/null.bmp
168.828	4.443	4	1	1.111	RhymeSpell/scale.bmp	RhymeSpell/fly2.bmp
173.271	4.443	0	1	1.136	RhymeSpell/null.bmp	RhymeSpell/null.bmp
177.714	4.443	6	1	1.281	Symbols/drp.bmp	Symbols/drn1.bmp
182.157	4.443	0	1	1.471	RhymeSpell/null.bmp	RhymeSpell/null.bmp
186.6	4.442	1	1	2.483	RhymeSpell/hint.bmp	RhymeSpell/print1.bmp
191.042	4.443	0	0	3.164	RhymeSpell/null.bmp	RhymeSpell/null.bmp
195.485	4.443	6	1	1.693	Symbols/ntv.bmp	Symbols/ntv2.bmp
199.928	4.443	0	1	1.725	RhymeSpell/null.bmp	RhymeSpell/null.bmp
204.371	4.443	5	0	n/a	Symbols/e.bmp	Symbols/e1.bmp
208.814	4.443	0	1	2.293	RhymeSpell/null.bmp	RhymeSpell/null.bmp
213.257	4.442	3	0	2.51	RhymeSpell/foot.bmp	RhymeSpell/hoot1.bmp
217.699	4.443	0	1	2.798	RhymeSpell/null.bmp	RhymeSpell/null.bmp
222.142	4.443	3	1	1.881	RhymeSpell/glove.bmp	RhymeSpell/drove2.bmp
226.585	4.443	0	1	1.374	RhymeSpell/null.bmp	RhymeSpell/null.bmp
231.028	4.443	2	1	2.139	RhymeSpell/trade.bmp	RhymeSpell/paid2.bmp
235.471	4.443	3	1	1.569	RhymeSpell/moth.bmp	RhymeSpell/both2.bmp
239.914	4.443	4	1	1.678	RhymeSpell/start.bmp	RhymeSpell/pure2.bmp
244.357	4.442	6	1	1.054	Symbols/gbk.bmp	Symbols/rbk2.bmp
248.799	4.443	0	1	0.778	RhymeSpell/null.bmp	RhymeSpell/null.bmp
253.242	4.443	5	1	1.615	Symbols/f.bmp	Symbols/f1.bmp
257.685	4.443	0	1	2.748	RhymeSpell/null.bmp	RhymeSpell/null.bmp
262.128	4.443	6	1	1.656	Symbols/zsj.bmp	Symbols/wsj1.bmp
266.571	4.443	0	1	1.489	RhymeSpell/null.bmp	RhymeSpell/null.bmp
271.014	4.442	1	0	1.942	RhymeSpell/wall.bmp	RhymeSpell/tall1.bmp
275.456	4.443	0	1	1.72	RhymeSpell/null.bmp	RhymeSpell/null.bmp
279.899	4.443	2	0	n/a	RhymeSpell/glad.bmp	RhymeSpell/plaid1.bmp
284.342	4.443	0	1	1.785	RhymeSpell/null.bmp	RhymeSpell/null.bmp
288.785	4.443	5	1	1.482	Symbols/o.bmp	Symbols/d1.bmp
293.228	4.443	0	1	1.498	RhymeSpell/null.bmp	RhymeSpell/null.bmp
297.671	4.442	4	1	1.717	RhymeSpell/strut.bmp	RhymeSpell/glint2.bmp
302.113	4.443	2	0	2.549	RhymeSpell/sheet.bmp	RhymeSpell/heat1.bmp
306.556	4.443	6	1	2.427	Symbols/lwy.bmp	Symbols/lwy1.bmp
310.999	4.443	2	1	2.33	RhymeSpell/whom.bmp	RhymeSpell/womb1.bmp
315.442	4.443	4	1	2.259	RhymeSpell/spare.bmp	RhymeSpell/cow1.bmp
319.885	4.443	0	1	1.427	RhymeSpell/null.bmp	RhymeSpell/null.bmp
324.328	4.443	3	1	1.701	RhymeSpell/fat.bmp	RhymeSpell/swat2.bmp
328.771	4.442	4	1	2.298	RhymeSpell/team.bmp	RhymeSpell/brief2.bmp
333.213	4.443	0	1	1.871	RhymeSpell/null.bmp	RhymeSpell/null.bmp
337.656	4.443	5	1	1.41	Symbols/k.bmp	Symbols/k1.bmp
342.099	4.443	0	1	1.904	RhymeSpell/null.bmp	RhymeSpell/null.bmp
346.542	4.443	3	1	1.911	RhymeSpell/bad.bmp	RhymeSpell/wad2.bmp
350.985	4.443	1	1	2.333	RhymeSpell/glare.bmp	RhymeSpell/share1.bmp
355.428	4.442	0	0	2.211	RhymeSpell/null.bmp	RhymeSpell/null.bmp
359.87	4.443	1	1	2.531	RhymeSpell/cold.bmp	RhymeSpell/told1.bmp
364.313	4.443	6	1	2.001	Symbols/lik.bmp	Symbols/lik1.bmp
368.756	4.443	1	1	2.043	RhymeSpell/dawn.bmp	RhymeSpell/lawn1.bmp
373.199	4.443	1	1	2.055	RhymeSpell/broke.bmp	RhymeSpell/joke1.bmp
377.642	4.443	4	1	2.889	RhymeSpell/craft.bmp	RhymeSpell/young1.bmp
382.085	4.442	0	1	0.903	RhymeSpell/null.bmp	RhymeSpell/null.bmp
386.527	4.443	3	1	2.757	RhymeSpell/hull.bmp	RhymeSpell/full1.bmp
390.97	4.443	3	0	1.893	RhymeSpell/freight.bmp	RhymeSpell/height2.bmp
395.413	4.443	5	1	1.275	Symbols/g.bmp	Symbols/p2.bmp
399.856	4.443	2	1	2.349	RhymeSpell/stool.bmp	RhymeSpell/ghoul1.bmp
404.299	4.443	2	1	2.013	RhymeSpell/hoe.bmp	RhymeSpell/throw2.bmp
408.742	4.443	0	1	1.541	RhymeSpell/null.bmp	RhymeSpell/null.bmp
413.185	4.442	6	0	1.654	Symbols/one.bmp	Symbols/one2.bmp
417.627	4.443	3	0	0.978	RhymeSpell/cost.bmp	RhymeSpell/ghost2.bmp
422.07	4.443	0	1	1.345	RhymeSpell/null.bmp	RhymeSpell/null.bmp
426.513	4.443	6	1	1.198	Symbols/hvj.bmp	Symbols/hvj1.bmp
430.956	4.443	2	1	1.489	RhymeSpell/gas.bmp	RhymeSpell/pass1.bmp
435.399	4.443	3	1	2.439	RhymeSpell/blood.bmp	RhymeSpell/wood1.bmp
439.842	4.442	0	1	1.691	RhymeSpell/null.bmp	RhymeSpell/null.bmp
444.284	4.443	4	1	1.786	RhymeSpell/vend.bmp	RhymeSpell/space1.bmp
448.727	4.443	2	1	1.61	RhymeSpell/choose.bmp	RhymeSpell/lose2.bmp
453.17	4.443	6	1	1.589	Symbols/rbe.bmp	Symbols/rte1.bmp
457.613	4.443	0	1	1.092	RhymeSpell/null.bmp	RhymeSpell/null.bmp
462.056	4.443	6	1	1.297	Symbols/wug.bmp	Symbols/wyg2.bmp
466.499	4.443	5	1	1.237	Symbols/d.bmp	Symbols/r2.bmp
470.942	4.442	0	1	2.831	RhymeSpell/null.bmp	RhymeSpell/null.bmp
475.384	4.439	0	1	1.277	RhymeSpell/null.bmp	RhymeSpell/null.bmp
