onset	duration	trial_type	accuracy	response_time	stim1_file	stim2_file
0.0	4.443	2	1	0.767	RhymeSpell/crawl.WAV	RhymeSpell/ball.WAV
4.443	4.442	2	1	1.011	RhymeSpell/moan.WAV	RhymeSpell/bone.WAV
8.885	4.443	0	0	n/a	Tones/nullsilence.WAV	Tones/nullsilence.WAV
13.328	4.443	3	0	1.167	RhymeSpell/harm.WAV	RhymeSpell/warm.WAV
17.771	4.443	0	0	n/a	Tones/nullsilence.WAV	Tones/nullsilence.WAV
22.214	4.443	3	0	1.224	RhymeSpell/dull.WAV	RhymeSpell/pull.WAV
26.657	4.443	5	1	0.816	Tones/700.WAV	Tones/700.WAV
31.1	4.442	1	1	1.469	RhymeSpell/dime.WAV	RhymeSpell/lime.WAV
35.542	4.443	0	1	2.042	Tones/nullsilence.WAV	Tones/nullsilence.WAV
39.985	4.443	1	0	1.514	RhymeSpell/thread.WAV	RhymeSpell/dread.WAV
44.428	4.443	4	1	1.804	RhymeSpell/dash.WAV	RhymeSpell/brow.WAV
48.871	4.443	2	1	1.095	RhymeSpell/though.WAV	RhymeSpell/blow.WAV
53.314	4.443	2	1	0.915	RhymeSpell/greet.WAV	RhymeSpell/neat.WAV
57.757	4.443	0	0	n/a	Tones/nullsilence.WAV	Tones/nullsilence.WAV
62.2	4.442	1	1	1.872	RhymeSpell/mad.WAV	RhymeSpell/pad.WAV
66.642	4.443	0	0	n/a	Tones/nullsilence.WAV	Tones/nullsilence.WAV
71.085	4.443	5	1	0.909	Tones/450.WAV	Tones/525.WAV
75.528	4.443	0	1	1.799	Tones/nullsilence.WAV	Tones/nullsilence.WAV
79.971	4.443	3	0	1.15	RhymeSpell/tough.WAV	RhymeSpell/cough.WAV
84.414	4.443	6	1	1.194	Tones/350475625.WAV	Tones/350475625.WAV
88.857	4.442	1	1	0.701	RhymeSpell/drum.WAV	RhymeSpell/gum.WAV
93.299	4.443	0	0	n/a	Tones/nullsilence.WAV	Tones/nullsilence.WAV
97.742	4.443	5	1	0.688	Tones/825.WAV	Tones/750.WAV
102.185	4.443	5	1	0.844	Tones/875.WAV	Tones/875.WAV
106.628	4.443	2	0	1.48	RhymeSpell/comb.WAV	RhymeSpell/chrome.WAV
111.071	4.443	0	0	n/a	Tones/nullsilence.WAV	Tones/nullsilence.WAV
115.514	4.443	3	0	1.567	RhymeSpell/couch.WAV	RhymeSpell/touch.WAV
119.957	4.442	0	1	3.104	Tones/nullsilence.WAV	Tones/nullsilence.WAV
124.399	4.443	6	0	1.049	Tones/325575725.WAV	Tones/325500725.WAV
128.842	4.443	0	0	n/a	Tones/nullsilence.WAV	Tones/nullsilence.WAV
133.285	4.443	3	0	2.247	RhymeSpell/gull.WAV	RhymeSpell/bull.WAV
137.728	4.443	4	1	1.64	RhymeSpell/goes.WAV	RhymeSpell/lap.WAV
142.171	4.443	5	1	0.778	Tones/525.WAV	Tones/525.WAV
146.614	4.442	1	1	1.104	RhymeSpell/pay.WAV	RhymeSpell/play.WAV
151.056	4.443	0	0	n/a	Tones/nullsilence.WAV	Tones/nullsilence.WAV
155.499	4.443	4	1	2.185	RhymeSpell/staff.WAV	RhymeSpell/gain.WAV
159.942	4.443	5	0	1.919	Tones/425.WAV	Tones/425.WAV
164.385	4.443	0	1	1.739	Tones/nullsilence.WAV	Tones/nullsilence.WAV
168.828	4.443	4	1	0.84	RhymeSpell/scale.WAV	RhymeSpell/fly.WAV
173.271	4.442	0	0	n/a	Tones/nullsilence.WAV	Tones/nullsilence.WAV
177.713	4.443	6	1	1.65	Tones/425700850.WAV	Tones/425700775.WAV
182.156	4.443	0	0	n/a	Tones/nullsilence.WAV	Tones/nullsilence.WAV
186.599	4.443	1	1	1.729	RhymeSpell/hint.WAV	RhymeSpell/print.WAV
191.042	4.443	0	0	n/a	Tones/nullsilence.WAV	Tones/nullsilence.WAV
195.485	4.443	6	1	1.574	Tones/525800450.WAV	Tones/525800450.WAV
199.928	4.443	0	1	1.426	Tones/nullsilence.WAV	Tones/nullsilence.WAV
204.371	4.443	5	1	0.863	Tones/400.WAV	Tones/400.WAV
208.814	4.442	0	0	n/a	Tones/nullsilence.WAV	Tones/nullsilence.WAV
213.256	4.443	3	1	1.127	RhymeSpell/foot.WAV	RhymeSpell/hoot.WAV
217.699	4.443	0	0	2.671	Tones/nullsilence.WAV	Tones/nullsilence.WAV
222.142	4.443	3	1	2.162	RhymeSpell/glove.WAV	RhymeSpell/drove.WAV
226.585	4.443	0	1	2.414	Tones/nullsilence.WAV	Tones/nullsilence.WAV
231.028	4.442	2	1	1.251	RhymeSpell/trade.WAV	RhymeSpell/paid.WAV
235.47	4.443	3	1	0.979	RhymeSpell/moth.WAV	RhymeSpell/both.WAV
239.913	4.443	4	1	2.14	RhymeSpell/start.WAV	RhymeSpell/pure.WAV
244.356	4.443	6	0	2.146	Tones/600550400.WAV	Tones/675550400.WAV
248.799	4.443	0	0	n/a	Tones/nullsilence.WAV	Tones/nullsilence.WAV
253.242	4.443	5	1	1.163	Tones/500.WAV	Tones/500.WAV
257.685	4.442	0	1	1.794	Tones/nullsilence.WAV	Tones/nullsilence.WAV
262.127	4.443	6	0	1.232	Tones/450650850.WAV	Tones/375650850.WAV
266.57	4.443	0	0	n/a	Tones/nullsilence.WAV	Tones/nullsilence.WAV
271.013	4.443	1	0	2.207	RhymeSpell/wall.WAV	RhymeSpell/tall.WAV
275.456	4.443	0	0	n/a	Tones/nullsilence.WAV	Tones/nullsilence.WAV
279.899	4.443	2	1	1.43	RhymeSpell/glad.WAV	RhymeSpell/plaid.WAV
284.342	4.443	0	0	n/a	Tones/nullsilence.WAV	Tones/nullsilence.WAV
288.785	4.442	5	1	1.053	Tones/725.WAV	Tones/650.WAV
293.227	4.443	0	0	n/a	Tones/nullsilence.WAV	Tones/nullsilence.WAV
297.67	4.443	4	0	n/a	RhymeSpell/strut.WAV	RhymeSpell/glint.WAV
302.113	4.443	2	1	3.046	RhymeSpell/sheet.WAV	RhymeSpell/heat.WAV
306.556	4.443	6	1	0.941	Tones/750300700.WAV	Tones/750300700.WAV
310.999	4.443	2	1	1.193	RhymeSpell/whom.WAV	RhymeSpell/womb.WAV
315.442	4.442	4	1	0.701	RhymeSpell/spare.WAV	RhymeSpell/cow.WAV
319.884	4.443	0	1	1.826	Tones/nullsilence.WAV	Tones/nullsilence.WAV
324.327	4.443	3	0	1.284	RhymeSpell/fat.WAV	RhymeSpell/swat.WAV
328.77	4.443	4	1	1.978	RhymeSpell/team.WAV	RhymeSpell/brief.WAV
333.213	4.443	0	1	1.89	Tones/nullsilence.WAV	Tones/nullsilence.WAV
337.656	4.443	5	1	1.583	Tones/550.WAV	Tones/550.WAV
342.099	4.442	0	1	2.155	Tones/nullsilence.WAV	Tones/nullsilence.WAV
346.541	4.443	3	1	1.737	RhymeSpell/bad.WAV	RhymeSpell/wad.WAV
350.984	4.443	1	1	1.526	RhymeSpell/glare.WAV	RhymeSpell/share.WAV
355.427	4.443	0	1	2.743	Tones/nullsilence.WAV	Tones/nullsilence.WAV
359.87	4.443	1	1	1.143	RhymeSpell/cold.WAV	RhymeSpell/told.WAV
364.313	4.443	6	1	0.773	Tones/775625825.WAV	Tones/775625825.WAV
368.756	4.443	1	0	2.198	RhymeSpell/dawn.WAV	RhymeSpell/lawn.WAV
373.199	4.442	1	0	1.388	RhymeSpell/broke.WAV	RhymeSpell/joke.WAV
377.641	4.443	4	1	0.796	RhymeSpell/craft.WAV	RhymeSpell/young.WAV
382.084	4.443	0	1	1.58	Tones/nullsilence.WAV	Tones/nullsilence.WAV
386.527	4.443	3	0	2.109	RhymeSpell/hull.WAV	RhymeSpell/full.WAV
390.97	4.443	3	1	1.398	RhymeSpell/freight.WAV	RhymeSpell/height.WAV
395.413	4.443	5	1	0.712	Tones/750.WAV	Tones/675.WAV
399.856	4.442	2	1	2.076	RhymeSpell/stool.WAV	RhymeSpell/ghoul.WAV
404.298	4.443	2	1	1.363	RhymeSpell/hoe.WAV	RhymeSpell/throw.WAV
408.741	4.443	0	0	n/a	Tones/nullsilence.WAV	Tones/nullsilence.WAV
413.184	4.443	6	1	0.715	Tones/875675500.WAV	Tones/875675500.WAV
417.627	4.443	3	0	0.888	RhymeSpell/cost.WAV	RhymeSpell/ghost.WAV
422.07	4.443	0	0	n/a	Tones/nullsilence.WAV	Tones/nullsilence.WAV
426.513	4.442	6	1	0.951	Tones/650350575.WAV	Tones/650350575.WAV
430.955	4.443	2	1	1.282	RhymeSpell/gas.WAV	RhymeSpell/pass.WAV
435.398	4.443	3	1	1.289	RhymeSpell/blood.WAV	RhymeSpell/wood.WAV
439.841	4.443	0	1	2.398	Tones/nullsilence.WAV	Tones/nullsilence.WAV
444.284	4.443	4	1	1.049	RhymeSpell/vend.WAV	RhymeSpell/space.WAV
448.727	4.443	2	1	0.99	RhymeSpell/choose.WAV	RhymeSpell/lose.WAV
453.17	4.443	6	0	n/a	Tones/700550775.WAV	Tones/700475775.WAV
457.613	4.442	0	1	1.332	Tones/nullsilence.WAV	Tones/nullsilence.WAV
462.055	4.443	6	0	n/a	Tones/825600375.WAV	Tones/825675375.WAV
466.498	4.443	5	1	0.867	Tones/475.WAV	Tones/550.WAV
470.941	4.443	0	0	n/a	Tones/nullsilence.WAV	Tones/nullsilence.WAV
475.384	4.439	0	0	n/a	Tones/nullsilence.WAV	Tones/nullsilence.WAV
