onset	duration	trial_type	accuracy	response_time	stim1_file	stim2_file
0.0	4.443	2	1	1.414	RhymeSpell/stroll.bmp	RhymeSpell/bowl1.bmp
4.443	4.443	2	0	1.51	RhymeSpell/shed.bmp	RhymeSpell/tread1.bmp
8.886	4.443	0	1	1.074	RhymeSpell/null.bmp	RhymeSpell/null.bmp
13.329	4.443	3	1	1.123	RhymeSpell/cove.bmp	RhymeSpell/prove2.bmp
17.772	4.443	0	1	1.172	RhymeSpell/null.bmp	RhymeSpell/null.bmp
22.215	4.442	3	1	0.987	RhymeSpell/climb.bmp	RhymeSpell/limb1.bmp
26.657	4.443	5	1	0.926	Symbols/m.bmp	Symbols/m2.bmp
31.1	4.443	1	1	0.754	RhymeSpell/class.bmp	RhymeSpell/mass2.bmp
35.543	4.443	0	1	1.456	RhymeSpell/null.bmp	RhymeSpell/null.bmp
39.986	4.443	1	1	1.243	RhymeSpell/brain.bmp	RhymeSpell/train2.bmp
44.429	4.443	4	1	1.016	RhymeSpell/norm.bmp	RhymeSpell/group1.bmp
48.872	4.443	2	1	1.748	RhymeSpell/caught.bmp	RhymeSpell/bought2.bmp
53.315	4.442	2	1	0.972	RhymeSpell/putt.bmp	RhymeSpell/cut2.bmp
57.757	4.443	0	1	1.197	RhymeSpell/null.bmp	RhymeSpell/null.bmp
62.2	4.443	1	1	1.274	RhymeSpell/nod.bmp	RhymeSpell/rod1.bmp
66.643	4.443	0	1	1.204	RhymeSpell/null.bmp	RhymeSpell/null.bmp
71.086	4.443	5	1	0.962	Symbols/z.bmp	Symbols/t1.bmp
75.529	4.443	0	1	1.273	RhymeSpell/null.bmp	RhymeSpell/null.bmp
79.972	4.442	3	1	1.126	RhymeSpell/hatch.bmp	RhymeSpell/watch2.bmp
84.414	4.443	6	1	1.377	Symbols/lfa.bmp	Symbols/lfa1.bmp
88.857	4.443	1	1	0.877	RhymeSpell/mark.bmp	RhymeSpell/park1.bmp
93.3	4.443	0	1	1.158	RhymeSpell/null.bmp	RhymeSpell/null.bmp
97.743	4.443	5	1	1.072	Symbols/j.bmp	Symbols/o1.bmp
102.186	4.443	5	1	1.074	Symbols/b.bmp	Symbols/b2.bmp
106.629	4.442	2	0	1.076	RhymeSpell/stuff.bmp	RhymeSpell/rough1.bmp
111.071	4.443	0	1	1.187	RhymeSpell/null.bmp	RhymeSpell/null.bmp
115.514	4.443	3	1	0.961	RhymeSpell/cheat.bmp	RhymeSpell/sweat1.bmp
119.957	4.443	0	1	1.289	RhymeSpell/null.bmp	RhymeSpell/null.bmp
124.4	4.443	6	1	0.876	Symbols/zti.bmp	Symbols/zvi1.bmp
128.843	4.443	0	1	1.117	RhymeSpell/null.bmp	RhymeSpell/null.bmp
133.286	4.443	3	1	1.114	RhymeSpell/flood.bmp	RhymeSpell/mood1.bmp
137.729	4.442	4	1	0.935	RhymeSpell/slap.bmp	RhymeSpell/tool1.bmp
142.171	4.443	5	1	1.103	Symbols/y.bmp	Symbols/y1.bmp
146.614	4.443	1	1	1.063	RhymeSpell/paste.bmp	RhymeSpell/taste1.bmp
151.057	4.443	0	1	1.113	RhymeSpell/null.bmp	RhymeSpell/null.bmp
155.5	4.443	4	1	1.741	RhymeSpell/walk.bmp	RhymeSpell/reef2.bmp
159.943	4.443	5	1	0.843	Symbols/a.bmp	Symbols/a1.bmp
164.386	4.442	0	1	1.226	RhymeSpell/null.bmp	RhymeSpell/null.bmp
168.828	4.443	4	1	1.259	RhymeSpell/trap.bmp	RhymeSpell/treat1.bmp
173.271	4.443	0	1	1.358	RhymeSpell/null.bmp	RhymeSpell/null.bmp
177.714	4.443	6	1	0.829	Symbols/drp.bmp	Symbols/drn1.bmp
182.157	4.443	0	1	1.233	RhymeSpell/null.bmp	RhymeSpell/null.bmp
186.6	4.443	1	1	1.427	RhymeSpell/sir.bmp	RhymeSpell/stir1.bmp
191.043	4.443	0	1	0.958	RhymeSpell/null.bmp	RhymeSpell/null.bmp
195.486	4.442	6	1	0.823	Symbols/ntv.bmp	Symbols/ntv2.bmp
199.928	4.443	0	1	1.259	RhymeSpell/null.bmp	RhymeSpell/null.bmp
204.371	4.443	5	1	0.936	Symbols/e.bmp	Symbols/e1.bmp
208.814	4.443	0	1	1.133	RhymeSpell/null.bmp	RhymeSpell/null.bmp
213.257	4.443	3	1	0.968	RhymeSpell/chase.bmp	RhymeSpell/phrase2.bmp
217.7	4.443	0	1	1.301	RhymeSpell/null.bmp	RhymeSpell/null.bmp
222.143	4.442	3	1	0.793	RhymeSpell/fan.bmp	RhymeSpell/swan1.bmp
226.585	4.443	0	1	1.153	RhymeSpell/null.bmp	RhymeSpell/null.bmp
231.028	4.444	2	0	0.95	RhymeSpell/cone.bmp	RhymeSpell/blown2.bmp
235.472	4.442	3	1	0.883	RhymeSpell/deaf.bmp	RhymeSpell/leaf2.bmp
239.914	4.443	4	1	0.96	RhymeSpell/drown.bmp	RhymeSpell/whose1.bmp
244.357	4.443	6	1	0.951	Symbols/gbk.bmp	Symbols/rbk2.bmp
248.8	4.442	0	1	1.193	RhymeSpell/null.bmp	RhymeSpell/null.bmp
253.242	4.443	5	1	0.876	Symbols/f.bmp	Symbols/f1.bmp
257.685	4.443	0	1	1.505	RhymeSpell/null.bmp	RhymeSpell/null.bmp
262.128	4.443	6	1	0.937	Symbols/zsj.bmp	Symbols/wsj1.bmp
266.571	4.443	0	1	0.16	RhymeSpell/null.bmp	RhymeSpell/null.bmp
271.014	4.443	1	1	0.872	RhymeSpell/chance.bmp	RhymeSpell/dance2.bmp
275.457	4.443	0	1	1.244	RhymeSpell/null.bmp	RhymeSpell/null.bmp
279.9	4.442	2	1	1.078	RhymeSpell/zone.bmp	RhymeSpell/flown1.bmp
284.342	4.443	0	1	1.274	RhymeSpell/null.bmp	RhymeSpell/null.bmp
288.785	4.443	5	1	0.973	Symbols/o.bmp	Symbols/d1.bmp
293.228	4.443	0	1	0.942	RhymeSpell/null.bmp	RhymeSpell/null.bmp
297.671	4.443	4	1	1.088	RhymeSpell/pose.bmp	RhymeSpell/brown2.bmp
302.114	4.443	2	1	1.251	RhymeSpell/mom.bmp	RhymeSpell/bomb1.bmp
306.557	4.442	6	0	1.378	Symbols/lwy.bmp	Symbols/lwy1.bmp
310.999	4.443	2	1	1.436	RhymeSpell/dose.bmp	RhymeSpell/gross1.bmp
315.442	4.443	4	1	1.008	RhymeSpell/theme.bmp	RhymeSpell/jail2.bmp
319.885	4.443	0	1	1.453	RhymeSpell/null.bmp	RhymeSpell/null.bmp
324.328	4.443	3	1	1.808	RhymeSpell/doll.bmp	RhymeSpell/toll1.bmp
328.771	4.443	4	1	0.868	RhymeSpell/thus.bmp	RhymeSpell/stay2.bmp
333.214	4.442	0	1	1.229	RhymeSpell/null.bmp	RhymeSpell/null.bmp
337.656	4.443	5	1	0.913	Symbols/k.bmp	Symbols/k1.bmp
342.099	4.443	0	1	1.249	RhymeSpell/null.bmp	RhymeSpell/null.bmp
346.542	4.443	3	1	1.021	RhymeSpell/charm.bmp	RhymeSpell/swarm1.bmp
350.985	4.443	1	1	1.737	RhymeSpell/boss.bmp	RhymeSpell/moss1.bmp
355.428	4.443	0	1	1.201	RhymeSpell/null.bmp	RhymeSpell/null.bmp
359.871	4.443	1	1	0.688	RhymeSpell/tax.bmp	RhymeSpell/wax1.bmp
364.314	4.442	6	1	0.575	Symbols/lik.bmp	Symbols/lik1.bmp
368.756	4.443	1	1	0.853	RhymeSpell/moose.bmp	RhymeSpell/goose1.bmp
373.199	4.443	1	1	0.711	RhymeSpell/hut.bmp	RhymeSpell/shut2.bmp
377.642	4.443	4	1	1.111	RhymeSpell/soup.bmp	RhymeSpell/stood1.bmp
382.085	4.443	0	1	1.46	RhymeSpell/null.bmp	RhymeSpell/null.bmp
386.528	4.443	3	1	1.928	RhymeSpell/pint.bmp	RhymeSpell/mint1.bmp
390.971	4.442	3	1	1.031	RhymeSpell/frost.bmp	RhymeSpell/post1.bmp
395.413	4.443	5	1	0.958	Symbols/g.bmp	Symbols/p2.bmp
399.856	4.443	2	0	0.762	RhymeSpell/cheer.bmp	RhymeSpell/gear1.bmp
404.299	4.443	2	1	1.147	RhymeSpell/dare.bmp	RhymeSpell/swear2.bmp
408.742	4.443	0	1	1.307	RhymeSpell/null.bmp	RhymeSpell/null.bmp
413.185	4.443	6	1	1.064	Symbols/one.bmp	Symbols/one2.bmp
417.628	4.443	3	1	0.789	RhymeSpell/card.bmp	RhymeSpell/ward2.bmp
422.071	4.442	0	1	1.217	RhymeSpell/null.bmp	RhymeSpell/null.bmp
426.513	4.443	6	1	1.03	Symbols/hvj.bmp	Symbols/hvj1.bmp
430.956	4.443	2	1	1.139	RhymeSpell/seek.bmp	RhymeSpell/beak2.bmp
435.399	4.443	3	1	1.272	RhymeSpell/five.bmp	RhymeSpell/give1.bmp
439.842	4.443	0	1	0.82	RhymeSpell/null.bmp	RhymeSpell/null.bmp
444.285	4.443	4	1	1.354	RhymeSpell/thigh.bmp	RhymeSpell/duke1.bmp
448.728	4.442	2	1	1.581	RhymeSpell/clean.bmp	RhymeSpell/screen2.bmp
453.17	4.443	6	1	1.006	Symbols/rbe.bmp	Symbols/rte1.bmp
457.613	4.443	0	1	1.393	RhymeSpell/null.bmp	RhymeSpell/null.bmp
462.056	4.443	6	1	0.917	Symbols/wug.bmp	Symbols/wyg2.bmp
466.499	4.443	5	1	1.145	Symbols/d.bmp	Symbols/r2.bmp
470.942	4.443	0	1	1.34	RhymeSpell/null.bmp	RhymeSpell/null.bmp
475.385	4.439	0	1	1.844	RhymeSpell/null.bmp	RhymeSpell/null.bmp
