onset	duration	trial_type	accuracy	response_time	stim1_file	stim2_file
0.0	4.443	4	0	n/a	Symbols/z.bmp	Symbols/t1.bmp
4.443	4.443	2	0	1.977	Semantic/seafood.bmp	Semantic/shrimp2.bmp
8.886	4.442	0	1	1.474	Semantic/null.bmp	Semantic/null.bmp
13.328	4.443	4	1	1.641	Symbols/j.bmp	Symbols/o1.bmp
17.771	4.443	5	0	1.109	Symbols/odt.bmp	Symbols/odt2.bmp
22.214	4.443	0	1	1.396	Semantic/null.bmp	Semantic/null.bmp
26.657	4.443	5	1	1.128	Symbols/lfa.bmp	Symbols/lfa1.bmp
31.1	4.443	4	1	1.067	Symbols/b.bmp	Symbols/b2.bmp
35.543	4.442	4	1	1.095	Symbols/y.bmp	Symbols/y1.bmp
39.985	4.443	0	1	1.754	Semantic/null.bmp	Semantic/null.bmp
44.428	4.443	1	1	2.014	Semantic/noun.bmp	Semantic/verb2.bmp
48.871	4.443	2	0	1.396	Semantic/save.bmp	Semantic/keep1.bmp
53.314	4.443	0	1	1.469	Semantic/null.bmp	Semantic/null.bmp
57.757	4.443	3	1	1.474	Semantic/jewel.bmp	Semantic/moan2.bmp
62.2	4.443	5	1	1.31	Symbols/zti.bmp	Symbols/zvi1.bmp
66.643	4.442	1	1	1.149	Semantic/washer.bmp	Semantic/dryer2.bmp
71.085	4.443	0	1	1.521	Semantic/null.bmp	Semantic/null.bmp
75.528	4.443	1	0	1.399	Semantic/sock.bmp	Semantic/shoe1.bmp
79.971	4.443	0	1	1.431	Semantic/null.bmp	Semantic/null.bmp
84.414	4.443	1	1	1.081	Semantic/touch.bmp	Semantic/feel1.bmp
88.857	4.443	0	1	1.384	Semantic/null.bmp	Semantic/null.bmp
93.3	4.442	2	1	1.224	Semantic/glue.bmp	Semantic/sticky1.bmp
97.742	4.443	0	1	1.524	Semantic/null.bmp	Semantic/null.bmp
102.185	4.443	1	1	1.662	Semantic/yell.bmp	Semantic/scream2.bmp
106.628	4.443	0	1	1.378	Semantic/null.bmp	Semantic/null.bmp
111.071	4.443	2	1	1.746	Semantic/temper.bmp	Semantic/tantrum2.bmp
115.514	4.443	2	1	1.16	Semantic/cheese.bmp	Semantic/cracker2.bmp
119.957	4.442	0	1	1.305	Semantic/null.bmp	Semantic/null.bmp
124.399	4.443	3	1	1.3	Semantic/rubber.bmp	Semantic/straw1.bmp
128.842	4.443	0	1	1.273	Semantic/null.bmp	Semantic/null.bmp
133.285	4.443	4	1	1.331	Symbols/a.bmp	Symbols/a1.bmp
137.728	4.443	0	1	1.314	Semantic/null.bmp	Semantic/null.bmp
142.171	4.443	1	1	1.059	Semantic/winner.bmp	Semantic/loser1.bmp
146.614	4.443	1	1	0.815	Semantic/start.bmp	Semantic/finish1.bmp
151.057	4.442	2	1	1.074	Semantic/children.bmp	Semantic/kids1.bmp
155.499	4.443	0	1	1.363	Semantic/null.bmp	Semantic/null.bmp
159.942	4.443	1	1	1.171	Semantic/question.bmp	Semantic/answer1.bmp
164.385	4.443	0	0	n/a	Semantic/null.bmp	Semantic/null.bmp
168.828	4.443	3	0	1.13	Semantic/stream.bmp	Semantic/rear1.bmp
173.271	4.443	0	1	1.426	Semantic/null.bmp	Semantic/null.bmp
177.714	4.442	3	1	1.582	Semantic/hearing.bmp	Semantic/bottle2.bmp
182.156	4.443	0	1	1.556	Semantic/null.bmp	Semantic/null.bmp
186.599	4.443	1	1	0.997	Semantic/above.bmp	Semantic/below1.bmp
191.042	4.443	4	1	1.28	Symbols/e.bmp	Symbols/e1.bmp
195.485	4.443	0	1	1.437	Semantic/null.bmp	Semantic/null.bmp
199.928	4.443	1	1	1.14	Semantic/circus.bmp	Semantic/clown1.bmp
204.371	4.442	4	1	1.096	Symbols/f.bmp	Symbols/f1.bmp
208.813	4.443	3	1	1.414	Semantic/rich.bmp	Semantic/pointed1.bmp
213.256	4.443	0	1	1.432	Semantic/null.bmp	Semantic/null.bmp
217.699	4.443	5	1	1.215	Symbols/drp.bmp	Symbols/drn1.bmp
222.142	4.443	0	1	1.416	Semantic/null.bmp	Semantic/null.bmp
226.585	4.443	4	1	1.811	Symbols/o.bmp	Symbols/d1.bmp
231.028	4.443	1	1	1.479	Semantic/mitten.bmp	Semantic/glove2.bmp
235.471	4.442	2	1	1.669	Semantic/silent.bmp	Semantic/quiet2.bmp
239.913	4.443	3	1	1.707	Semantic/towel.bmp	Semantic/puppet1.bmp
244.356	4.443	1	1	1.372	Semantic/syrup.bmp	Semantic/pancakes2.bmp
248.799	4.443	0	1	1.599	Semantic/null.bmp	Semantic/null.bmp
253.242	4.443	3	1	1.772	Semantic/upper.bmp	Semantic/broke1.bmp
257.685	4.443	2	1	1.04	Semantic/lobster.bmp	Semantic/crab1.bmp
262.128	4.442	0	1	2.063	Semantic/null.bmp	Semantic/null.bmp
266.57	4.443	0	1	1.478	Semantic/null.bmp	Semantic/null.bmp
271.013	4.443	3	1	1.581	Semantic/ranch.bmp	Semantic/chin1.bmp
275.456	4.443	4	1	1.234	Symbols/k.bmp	Symbols/k1.bmp
279.899	4.443	0	1	1.539	Semantic/null.bmp	Semantic/null.bmp
284.342	4.443	5	1	1.207	Symbols/ntv.bmp	Symbols/ntv2.bmp
288.785	4.442	2	1	1.584	Semantic/razor.bmp	Semantic/blade1.bmp
293.227	4.443	0	1	1.345	Semantic/null.bmp	Semantic/null.bmp
297.67	4.443	1	1	1.548	Semantic/jam.bmp	Semantic/jelly2.bmp
302.113	4.443	2	1	1.756	Semantic/smudge.bmp	Semantic/smear2.bmp
306.556	4.443	0	1	1.448	Semantic/null.bmp	Semantic/null.bmp
310.999	4.443	5	1	1.163	Symbols/gbk.bmp	Symbols/rbk2.bmp
315.442	4.443	4	1	1.029	Symbols/g.bmp	Symbols/p2.bmp
319.885	4.442	0	1	1.411	Semantic/null.bmp	Semantic/null.bmp
324.327	4.443	3	1	1.235	Semantic/clerk.bmp	Semantic/bent2.bmp
328.77	4.443	2	1	1.169	Semantic/finish.bmp	Semantic/end2.bmp
333.213	4.443	0	1	1.51	Semantic/null.bmp	Semantic/null.bmp
337.656	4.443	5	1	1.167	Symbols/zsj.bmp	Symbols/wsj1.bmp
342.099	4.443	0	1	1.611	Semantic/null.bmp	Semantic/null.bmp
346.542	4.442	5	0	1.195	Symbols/lwy.bmp	Symbols/lwy1.bmp
350.984	4.443	5	1	1.088	Symbols/lik.bmp	Symbols/lik1.bmp
355.427	4.443	5	1	1.116	Symbols/one.bmp	Symbols/one2.bmp
359.87	4.443	0	1	1.342	Semantic/null.bmp	Semantic/null.bmp
364.313	4.443	5	1	1.078	Symbols/hvj.bmp	Symbols/hvj1.bmp
368.756	4.443	5	1	0.994	Symbols/rbe.bmp	Symbols/rte1.bmp
373.199	4.443	3	1	1.729	Semantic/map.bmp	Semantic/hut1.bmp
377.642	4.442	3	1	1.227	Semantic/scar.bmp	Semantic/tunnel1.bmp
382.084	4.443	4	0	1.185	Symbols/d.bmp	Symbols/r2.bmp
386.527	4.443	5	1	1.098	Symbols/wug.bmp	Symbols/wyg2.bmp
390.97	4.439	0	1	1.475	Semantic/null.bmp	Semantic/null.bmp
