onset	duration	trial_type	accuracy	response_time	stim1_file	stim2_file
0.0	4.442	2	1	0.78	RhymeSpell/crawl.WAV	RhymeSpell/ball.WAV
4.442	4.443	2	1	1.021	RhymeSpell/moan.WAV	RhymeSpell/bone.WAV
8.885	4.443	0	1	0.974	Tones/nullsilence.WAV	Tones/nullsilence.WAV
13.328	4.443	3	1	0.987	RhymeSpell/harm.WAV	RhymeSpell/warm.WAV
17.771	4.443	0	1	0.839	Tones/nullsilence.WAV	Tones/nullsilence.WAV
22.214	4.443	3	0	0.65	RhymeSpell/dull.WAV	RhymeSpell/pull.WAV
26.657	4.442	5	1	1.503	Tones/700.WAV	Tones/700.WAV
31.099	4.443	1	1	1.024	RhymeSpell/dime.WAV	RhymeSpell/lime.WAV
35.542	4.443	0	1	0.883	Tones/nullsilence.WAV	Tones/nullsilence.WAV
39.985	4.443	1	1	1.172	RhymeSpell/thread.WAV	RhymeSpell/dread.WAV
44.428	4.443	4	1	1.067	RhymeSpell/dash.WAV	RhymeSpell/brow.WAV
48.871	4.443	2	1	0.825	RhymeSpell/though.WAV	RhymeSpell/blow.WAV
53.314	4.442	2	1	0.96	RhymeSpell/greet.WAV	RhymeSpell/neat.WAV
57.756	4.443	0	1	0.844	Tones/nullsilence.WAV	Tones/nullsilence.WAV
62.199	4.443	1	1	1.772	RhymeSpell/mad.WAV	RhymeSpell/pad.WAV
66.642	4.443	0	1	1.276	Tones/nullsilence.WAV	Tones/nullsilence.WAV
71.085	4.443	5	1	1.508	Tones/450.WAV	Tones/525.WAV
75.528	4.443	0	1	1.069	Tones/nullsilence.WAV	Tones/nullsilence.WAV
79.971	4.442	3	1	1.266	RhymeSpell/tough.WAV	RhymeSpell/cough.WAV
84.413	4.443	6	1	0.91	Tones/350475625.WAV	Tones/350475625.WAV
88.856	4.443	1	1	0.94	RhymeSpell/drum.WAV	RhymeSpell/gum.WAV
93.299	4.443	0	1	1.755	Tones/nullsilence.WAV	Tones/nullsilence.WAV
97.742	4.443	5	1	0.826	Tones/825.WAV	Tones/750.WAV
102.185	4.443	5	1	0.832	Tones/875.WAV	Tones/875.WAV
106.628	4.443	2	1	1.12	RhymeSpell/comb.WAV	RhymeSpell/chrome.WAV
111.071	4.442	0	1	1.419	Tones/nullsilence.WAV	Tones/nullsilence.WAV
115.513	4.443	3	0	1.505	RhymeSpell/couch.WAV	RhymeSpell/touch.WAV
119.956	4.443	0	1	0.829	Tones/nullsilence.WAV	Tones/nullsilence.WAV
124.399	4.443	6	0	1.801	Tones/325575725.WAV	Tones/325500725.WAV
128.842	4.443	0	1	0.835	Tones/nullsilence.WAV	Tones/nullsilence.WAV
133.285	4.443	3	1	0.817	RhymeSpell/gull.WAV	RhymeSpell/bull.WAV
137.728	4.442	4	1	1.001	RhymeSpell/goes.WAV	RhymeSpell/lap.WAV
142.17	4.443	5	0	0.968	Tones/525.WAV	Tones/525.WAV
146.613	4.443	1	1	1.185	RhymeSpell/pay.WAV	RhymeSpell/play.WAV
151.056	4.443	0	1	1.223	Tones/nullsilence.WAV	Tones/nullsilence.WAV
155.499	4.443	4	1	1.242	RhymeSpell/staff.WAV	RhymeSpell/gain.WAV
159.942	4.443	5	1	0.956	Tones/425.WAV	Tones/425.WAV
164.385	4.442	0	1	1.059	Tones/nullsilence.WAV	Tones/nullsilence.WAV
168.827	4.443	4	1	1.089	RhymeSpell/scale.WAV	RhymeSpell/fly.WAV
173.27	4.443	0	1	1.06	Tones/nullsilence.WAV	Tones/nullsilence.WAV
177.713	4.443	6	1	1.805	Tones/425700850.WAV	Tones/425700775.WAV
182.156	4.443	0	1	1.36	Tones/nullsilence.WAV	Tones/nullsilence.WAV
186.599	4.443	1	1	0.874	RhymeSpell/hint.WAV	RhymeSpell/print.WAV
191.042	4.442	0	1	1.403	Tones/nullsilence.WAV	Tones/nullsilence.WAV
195.484	4.443	6	1	2.21	Tones/525800450.WAV	Tones/525800450.WAV
199.927	4.443	0	1	1.756	Tones/nullsilence.WAV	Tones/nullsilence.WAV
204.37	4.443	5	1	1.182	Tones/400.WAV	Tones/400.WAV
208.813	4.443	0	1	1.068	Tones/nullsilence.WAV	Tones/nullsilence.WAV
213.256	4.443	3	1	0.767	RhymeSpell/foot.WAV	RhymeSpell/hoot.WAV
217.699	4.443	0	1	1.011	Tones/nullsilence.WAV	Tones/nullsilence.WAV
222.142	4.442	3	1	2.326	RhymeSpell/glove.WAV	RhymeSpell/drove.WAV
226.584	4.443	0	1	1.824	Tones/nullsilence.WAV	Tones/nullsilence.WAV
231.027	4.443	2	1	0.765	RhymeSpell/trade.WAV	RhymeSpell/paid.WAV
235.47	4.443	3	1	0.9	RhymeSpell/moth.WAV	RhymeSpell/both.WAV
239.913	4.443	4	1	1.349	RhymeSpell/start.WAV	RhymeSpell/pure.WAV
244.356	4.443	6	1	0.991	Tones/600550400.WAV	Tones/675550400.WAV
248.799	4.442	0	1	0.911	Tones/nullsilence.WAV	Tones/nullsilence.WAV
253.241	4.443	5	1	1.508	Tones/500.WAV	Tones/500.WAV
257.684	4.443	0	1	1.161	Tones/nullsilence.WAV	Tones/nullsilence.WAV
262.127	4.443	6	1	1.69	Tones/450650850.WAV	Tones/375650850.WAV
266.57	4.638	0	1	1.121	Tones/nullsilence.WAV	Tones/nullsilence.WAV
271.208	4.443	1	1	0.976	RhymeSpell/wall.WAV	RhymeSpell/tall.WAV
275.651	4.443	0	1	0.747	Tones/nullsilence.WAV	Tones/nullsilence.WAV
280.094	4.443	2	1	0.952	RhymeSpell/glad.WAV	RhymeSpell/plaid.WAV
284.537	4.442	0	1	1.067	Tones/nullsilence.WAV	Tones/nullsilence.WAV
288.979	4.443	5	1	0.96	Tones/725.WAV	Tones/650.WAV
293.422	4.443	0	1	1.066	Tones/nullsilence.WAV	Tones/nullsilence.WAV
297.865	4.443	4	1	1.113	RhymeSpell/strut.WAV	RhymeSpell/glint.WAV
302.308	4.443	2	1	1.11	RhymeSpell/sheet.WAV	RhymeSpell/heat.WAV
306.751	4.443	6	1	0.816	Tones/750300700.WAV	Tones/750300700.WAV
311.194	4.442	2	1	0.642	RhymeSpell/whom.WAV	RhymeSpell/womb.WAV
315.636	4.443	4	1	1.112	RhymeSpell/spare.WAV	RhymeSpell/cow.WAV
320.079	4.443	0	1	1.119	Tones/nullsilence.WAV	Tones/nullsilence.WAV
324.522	4.443	3	1	1.258	RhymeSpell/fat.WAV	RhymeSpell/swat.WAV
328.965	4.443	4	1	1.929	RhymeSpell/team.WAV	RhymeSpell/brief.WAV
333.408	4.443	0	1	0.787	Tones/nullsilence.WAV	Tones/nullsilence.WAV
337.851	4.442	5	1	1.374	Tones/550.WAV	Tones/550.WAV
342.293	4.443	0	1	1.176	Tones/nullsilence.WAV	Tones/nullsilence.WAV
346.736	4.443	3	1	1.416	RhymeSpell/bad.WAV	RhymeSpell/wad.WAV
351.179	4.443	1	1	0.985	RhymeSpell/glare.WAV	RhymeSpell/share.WAV
355.622	4.443	0	1	0.778	Tones/nullsilence.WAV	Tones/nullsilence.WAV
360.065	4.443	1	1	1.362	RhymeSpell/cold.WAV	RhymeSpell/told.WAV
364.508	4.443	6	1	0.762	Tones/775625825.WAV	Tones/775625825.WAV
368.951	4.442	1	1	1.137	RhymeSpell/dawn.WAV	RhymeSpell/lawn.WAV
373.393	4.443	1	1	0.951	RhymeSpell/broke.WAV	RhymeSpell/joke.WAV
377.836	4.443	4	1	0.82	RhymeSpell/craft.WAV	RhymeSpell/young.WAV
382.279	4.443	0	1	0.817	Tones/nullsilence.WAV	Tones/nullsilence.WAV
386.722	4.443	3	1	1.327	RhymeSpell/hull.WAV	RhymeSpell/full.WAV
391.165	4.443	3	1	1.401	RhymeSpell/freight.WAV	RhymeSpell/height.WAV
395.608	4.442	5	0	1.479	Tones/750.WAV	Tones/675.WAV
400.05	4.443	2	1	1.726	RhymeSpell/stool.WAV	RhymeSpell/ghoul.WAV
404.493	4.443	2	1	0.9	RhymeSpell/hoe.WAV	RhymeSpell/throw.WAV
408.936	4.443	0	1	0.818	Tones/nullsilence.WAV	Tones/nullsilence.WAV
413.379	4.443	6	1	1.13	Tones/875675500.WAV	Tones/875675500.WAV
417.822	4.443	3	1	1.037	RhymeSpell/cost.WAV	RhymeSpell/ghost.WAV
422.265	4.442	0	1	1.217	Tones/nullsilence.WAV	Tones/nullsilence.WAV
426.707	4.443	6	1	1.102	Tones/650350575.WAV	Tones/650350575.WAV
431.15	4.443	2	1	1.547	RhymeSpell/gas.WAV	RhymeSpell/pass.WAV
435.593	4.443	3	1	1.305	RhymeSpell/blood.WAV	RhymeSpell/wood.WAV
440.036	4.443	0	1	0.777	Tones/nullsilence.WAV	Tones/nullsilence.WAV
444.479	4.443	4	1	1.114	RhymeSpell/vend.WAV	RhymeSpell/space.WAV
448.922	4.442	2	1	1.02	RhymeSpell/choose.WAV	RhymeSpell/lose.WAV
453.364	4.443	6	1	1.547	Tones/700550775.WAV	Tones/700475775.WAV
457.807	4.443	0	1	0.785	Tones/nullsilence.WAV	Tones/nullsilence.WAV
462.25	4.443	6	0	0.944	Tones/825600375.WAV	Tones/825675375.WAV
466.693	4.443	5	1	1.12	Tones/475.WAV	Tones/550.WAV
471.136	4.443	0	1	1.127	Tones/nullsilence.WAV	Tones/nullsilence.WAV
475.579	4.439	0	1	1.186	Tones/nullsilence.WAV	Tones/nullsilence.WAV
