onset	duration	trial_type	accuracy	response_time	stim1_file	stim2_file
0.0	4.443	2	1	1.628	RhymeSpell/crawl.WAV	RhymeSpell/ball.WAV
4.443	4.443	2	1	1.285	RhymeSpell/moan.WAV	RhymeSpell/bone.WAV
8.886	4.443	0	1	0.713	Tones/nullsilence.WAV	Tones/nullsilence.WAV
13.329	4.442	3	1	1.738	RhymeSpell/harm.WAV	RhymeSpell/warm.WAV
17.771	4.443	0	1	1.335	Tones/nullsilence.WAV	Tones/nullsilence.WAV
22.214	4.443	3	1	1.976	RhymeSpell/dull.WAV	RhymeSpell/pull.WAV
26.657	4.443	5	1	1.18	Tones/700.WAV	Tones/700.WAV
31.1	4.443	1	1	1.393	RhymeSpell/dime.WAV	RhymeSpell/lime.WAV
35.543	4.443	0	1	0.514	Tones/nullsilence.WAV	Tones/nullsilence.WAV
39.986	4.442	1	1	2.144	RhymeSpell/thread.WAV	RhymeSpell/dread.WAV
44.428	4.443	4	1	1.708	RhymeSpell/dash.WAV	RhymeSpell/brow.WAV
48.871	4.443	2	1	1.648	RhymeSpell/though.WAV	RhymeSpell/blow.WAV
53.314	4.443	2	0	1.907	RhymeSpell/greet.WAV	RhymeSpell/neat.WAV
57.757	4.443	0	0	n/a	Tones/nullsilence.WAV	Tones/nullsilence.WAV
62.2	4.443	1	1	2.003	RhymeSpell/mad.WAV	RhymeSpell/pad.WAV
66.643	4.442	0	1	0.249	Tones/nullsilence.WAV	Tones/nullsilence.WAV
71.085	4.443	5	1	1.623	Tones/450.WAV	Tones/525.WAV
75.528	4.443	0	1	0.459	Tones/nullsilence.WAV	Tones/nullsilence.WAV
79.971	4.443	3	1	2.315	RhymeSpell/tough.WAV	RhymeSpell/cough.WAV
84.414	4.443	6	1	1.546	Tones/350475625.WAV	Tones/350475625.WAV
88.857	4.443	1	1	2.761	RhymeSpell/drum.WAV	RhymeSpell/gum.WAV
93.3	4.443	0	0	n/a	Tones/nullsilence.WAV	Tones/nullsilence.WAV
97.743	4.442	5	1	1.645	Tones/825.WAV	Tones/750.WAV
102.185	4.443	5	1	1.182	Tones/875.WAV	Tones/875.WAV
106.628	4.443	2	0	2.341	RhymeSpell/comb.WAV	RhymeSpell/chrome.WAV
111.071	4.443	0	1	0.718	Tones/nullsilence.WAV	Tones/nullsilence.WAV
115.514	4.443	3	0	1.339	RhymeSpell/couch.WAV	RhymeSpell/touch.WAV
119.957	4.443	0	1	0.665	Tones/nullsilence.WAV	Tones/nullsilence.WAV
124.4	4.442	6	1	1.46	Tones/325575725.WAV	Tones/325500725.WAV
128.842	4.443	0	1	0.642	Tones/nullsilence.WAV	Tones/nullsilence.WAV
133.285	4.443	3	1	1.595	RhymeSpell/gull.WAV	RhymeSpell/bull.WAV
137.728	4.443	4	1	1.531	RhymeSpell/goes.WAV	RhymeSpell/lap.WAV
142.171	4.443	5	1	1.059	Tones/525.WAV	Tones/525.WAV
146.614	4.443	1	1	1.53	RhymeSpell/pay.WAV	RhymeSpell/play.WAV
151.057	4.442	0	1	0.68	Tones/nullsilence.WAV	Tones/nullsilence.WAV
155.499	4.443	4	1	2.101	RhymeSpell/staff.WAV	RhymeSpell/gain.WAV
159.942	4.443	5	1	1.349	Tones/425.WAV	Tones/425.WAV
164.385	4.443	0	1	0.558	Tones/nullsilence.WAV	Tones/nullsilence.WAV
168.828	4.443	4	1	1.395	RhymeSpell/scale.WAV	RhymeSpell/fly.WAV
173.271	4.443	0	1	0.833	Tones/nullsilence.WAV	Tones/nullsilence.WAV
177.714	4.442	6	1	1.27	Tones/425700850.WAV	Tones/425700775.WAV
182.156	4.443	0	1	1.091	Tones/nullsilence.WAV	Tones/nullsilence.WAV
186.599	4.443	1	0	n/a	RhymeSpell/hint.WAV	RhymeSpell/print.WAV
191.042	4.443	0	1	1.285	Tones/nullsilence.WAV	Tones/nullsilence.WAV
195.485	4.443	6	1	1.771	Tones/525800450.WAV	Tones/525800450.WAV
199.928	4.443	0	1	1.651	Tones/nullsilence.WAV	Tones/nullsilence.WAV
204.371	4.443	5	1	1.804	Tones/400.WAV	Tones/400.WAV
208.814	4.442	0	1	0.945	Tones/nullsilence.WAV	Tones/nullsilence.WAV
213.256	4.443	3	1	1.062	RhymeSpell/foot.WAV	RhymeSpell/hoot.WAV
217.699	4.443	0	1	0.961	Tones/nullsilence.WAV	Tones/nullsilence.WAV
222.142	4.443	3	1	3.204	RhymeSpell/glove.WAV	RhymeSpell/drove.WAV
226.585	4.443	0	1	0.734	Tones/nullsilence.WAV	Tones/nullsilence.WAV
231.028	4.443	2	1	1.796	RhymeSpell/trade.WAV	RhymeSpell/paid.WAV
235.471	4.442	3	1	1.887	RhymeSpell/moth.WAV	RhymeSpell/both.WAV
239.913	4.443	4	0	1.459	RhymeSpell/start.WAV	RhymeSpell/pure.WAV
244.356	4.443	6	1	1.848	Tones/600550400.WAV	Tones/675550400.WAV
248.799	4.443	0	1	1.285	Tones/nullsilence.WAV	Tones/nullsilence.WAV
253.242	4.443	5	1	1.455	Tones/500.WAV	Tones/500.WAV
257.685	4.443	0	0	1.667	Tones/nullsilence.WAV	Tones/nullsilence.WAV
262.128	4.442	6	1	1.682	Tones/450650850.WAV	Tones/375650850.WAV
266.57	4.655	0	1	0.184	Tones/nullsilence.WAV	Tones/nullsilence.WAV
271.225	4.443	1	1	1.317	RhymeSpell/wall.WAV	RhymeSpell/tall.WAV
275.668	4.443	0	1	0.767	Tones/nullsilence.WAV	Tones/nullsilence.WAV
280.111	4.442	2	0	2.41	RhymeSpell/glad.WAV	RhymeSpell/plaid.WAV
284.553	4.443	0	0	n/a	Tones/nullsilence.WAV	Tones/nullsilence.WAV
288.996	4.443	5	1	1.302	Tones/725.WAV	Tones/650.WAV
293.439	4.443	0	1	1.036	Tones/nullsilence.WAV	Tones/nullsilence.WAV
297.882	4.443	4	1	1.54	RhymeSpell/strut.WAV	RhymeSpell/glint.WAV
302.325	4.443	2	1	2.334	RhymeSpell/sheet.WAV	RhymeSpell/heat.WAV
306.768	4.442	6	1	2.129	Tones/750300700.WAV	Tones/750300700.WAV
311.21	4.443	2	0	n/a	RhymeSpell/whom.WAV	RhymeSpell/womb.WAV
315.653	4.443	4	1	1.279	RhymeSpell/spare.WAV	RhymeSpell/cow.WAV
320.096	4.443	0	1	0.503	Tones/nullsilence.WAV	Tones/nullsilence.WAV
324.539	4.443	3	0	n/a	RhymeSpell/fat.WAV	RhymeSpell/swat.WAV
328.982	4.443	4	1	1.38	RhymeSpell/team.WAV	RhymeSpell/brief.WAV
333.425	4.442	0	1	0.766	Tones/nullsilence.WAV	Tones/nullsilence.WAV
337.867	4.443	5	1	1.464	Tones/550.WAV	Tones/550.WAV
342.31	4.443	0	1	1.024	Tones/nullsilence.WAV	Tones/nullsilence.WAV
346.753	4.443	3	0	3.205	RhymeSpell/bad.WAV	RhymeSpell/wad.WAV
351.196	4.443	1	1	1.076	RhymeSpell/glare.WAV	RhymeSpell/share.WAV
355.639	4.443	0	0	n/a	Tones/nullsilence.WAV	Tones/nullsilence.WAV
360.082	4.442	1	1	2.03	RhymeSpell/cold.WAV	RhymeSpell/told.WAV
364.524	4.443	6	1	1.318	Tones/775625825.WAV	Tones/775625825.WAV
368.967	4.443	1	1	2.31	RhymeSpell/dawn.WAV	RhymeSpell/lawn.WAV
373.41	4.443	1	1	1.409	RhymeSpell/broke.WAV	RhymeSpell/joke.WAV
377.853	4.443	4	0	1.197	RhymeSpell/craft.WAV	RhymeSpell/young.WAV
382.296	4.443	0	1	0.856	Tones/nullsilence.WAV	Tones/nullsilence.WAV
386.739	4.443	3	1	1.886	RhymeSpell/hull.WAV	RhymeSpell/full.WAV
391.182	4.442	3	1	1.571	RhymeSpell/freight.WAV	RhymeSpell/height.WAV
395.624	4.443	5	1	1.672	Tones/750.WAV	Tones/675.WAV
400.067	4.443	2	1	2.111	RhymeSpell/stool.WAV	RhymeSpell/ghoul.WAV
404.51	4.443	2	1	1.848	RhymeSpell/hoe.WAV	RhymeSpell/throw.WAV
408.953	4.443	0	1	0.643	Tones/nullsilence.WAV	Tones/nullsilence.WAV
413.396	4.443	6	1	1.258	Tones/875675500.WAV	Tones/875675500.WAV
417.839	4.442	3	0	n/a	RhymeSpell/cost.WAV	RhymeSpell/ghost.WAV
422.281	4.443	0	1	0.771	Tones/nullsilence.WAV	Tones/nullsilence.WAV
426.724	4.443	6	1	1.242	Tones/650350575.WAV	Tones/650350575.WAV
431.167	4.443	2	1	1.768	RhymeSpell/gas.WAV	RhymeSpell/pass.WAV
435.61	4.443	3	1	1.161	RhymeSpell/blood.WAV	RhymeSpell/wood.WAV
440.053	4.443	0	1	0.577	Tones/nullsilence.WAV	Tones/nullsilence.WAV
444.496	4.442	4	1	2.048	RhymeSpell/vend.WAV	RhymeSpell/space.WAV
448.938	4.443	2	1	2.932	RhymeSpell/choose.WAV	RhymeSpell/lose.WAV
453.381	4.443	6	0	n/a	Tones/700550775.WAV	Tones/700475775.WAV
457.824	4.443	0	1	1.02	Tones/nullsilence.WAV	Tones/nullsilence.WAV
462.267	4.443	6	1	1.66	Tones/825600375.WAV	Tones/825675375.WAV
466.71	4.443	5	0	0.91	Tones/475.WAV	Tones/550.WAV
471.153	4.442	0	1	0.815	Tones/nullsilence.WAV	Tones/nullsilence.WAV
475.595	4.439	0	1	0.904	Tones/nullsilence.WAV	Tones/nullsilence.WAV
