onset	duration	trial_type	accuracy	response_time	stim1_file	stim2_file
0.0	4.443	3	1	1.216	Semantic/handle.WAV	Semantic/depth.WAV
4.443	4.442	2	0	1.251	Semantic/yarn.WAV	Semantic/knit.WAV
8.885	4.443	3	1	1.7	Semantic/dessert.WAV	Semantic/bony.WAV
13.328	4.443	0	1	0.819	Tones/nullsilence.WAV	Tones/nullsilence.WAV
17.771	4.443	2	0	1.867	Semantic/dish.WAV	Semantic/plate.WAV
22.214	4.443	4	0	1.953	Tones/675.WAV	Tones/600.WAV
26.657	4.443	0	1	1.532	Tones/nullsilence.WAV	Tones/nullsilence.WAV
31.1	4.442	4	1	1.824	Tones/600.WAV	Tones/600.WAV
35.542	4.443	4	1	1.096	Tones/325.WAV	Tones/325.WAV
39.985	4.443	4	1	1.092	Tones/350.WAV	Tones/425.WAV
44.428	4.443	0	1	0.824	Tones/nullsilence.WAV	Tones/nullsilence.WAV
48.871	4.443	4	1	0.919	Tones/850.WAV	Tones/850.WAV
53.314	4.443	0	1	1.102	Tones/nullsilence.WAV	Tones/nullsilence.WAV
57.757	4.442	3	1	3.139	Semantic/flush.WAV	Semantic/cliff.WAV
62.199	4.443	0	1	0.703	Tones/nullsilence.WAV	Tones/nullsilence.WAV
66.642	4.443	1	0	1.547	Semantic/ape.WAV	Semantic/monkey.WAV
71.085	4.443	1	1	1.899	Semantic/spoon.WAV	Semantic/fork.WAV
75.528	4.443	0	1	0.532	Tones/nullsilence.WAV	Tones/nullsilence.WAV
79.971	4.443	1	1	2.381	Semantic/awake.WAV	Semantic/asleep.WAV
84.414	4.443	0	1	0.769	Tones/nullsilence.WAV	Tones/nullsilence.WAV
88.857	4.442	2	1	1.76	Semantic/senate.WAV	Semantic/congress.WAV
93.299	4.443	0	1	0.777	Tones/nullsilence.WAV	Tones/nullsilence.WAV
97.742	4.443	3	1	1.882	Semantic/steam.WAV	Semantic/gap.WAV
102.185	4.443	0	1	0.417	Tones/nullsilence.WAV	Tones/nullsilence.WAV
106.628	4.443	2	1	0.972	Semantic/checkers.WAV	Semantic/chess.WAV
111.071	4.443	5	1	1.331	Tones/425600750.WAV	Tones/425600750.WAV
115.514	4.442	0	1	0.593	Tones/nullsilence.WAV	Tones/nullsilence.WAV
119.956	4.443	1	1	1.523	Semantic/rodent.WAV	Semantic/rat.WAV
124.399	4.443	2	1	1.795	Semantic/robber.WAV	Semantic/thief.WAV
128.842	4.443	3	1	1.134	Semantic/bone.WAV	Semantic/mountain.WAV
133.285	4.443	4	1	2.432	Tones/775.WAV	Tones/700.WAV
137.728	4.443	2	1	2.974	Semantic/purse.WAV	Semantic/wallet.WAV
142.171	4.442	0	1	1.039	Tones/nullsilence.WAV	Tones/nullsilence.WAV
146.613	4.443	2	1	1.763	Semantic/sunny.WAV	Semantic/cloudy.WAV
151.056	4.443	2	1	2.063	Semantic/hide.WAV	Semantic/seek.WAV
155.499	4.443	0	1	0.616	Tones/nullsilence.WAV	Tones/nullsilence.WAV
159.942	4.443	1	1	1.596	Semantic/mom.WAV	Semantic/dad.WAV
164.385	4.443	4	1	0.939	Tones/625.WAV	Tones/625.WAV
168.828	4.442	3	1	0.99	Semantic/joke.WAV	Semantic/chart.WAV
173.27	4.443	3	1	2.062	Semantic/heavy.WAV	Semantic/wish.WAV
177.713	4.443	3	0	1.456	Semantic/plug.WAV	Semantic/belly.WAV
182.156	4.443	0	1	0.679	Tones/nullsilence.WAV	Tones/nullsilence.WAV
186.599	4.443	3	1	2.511	Semantic/steer.WAV	Semantic/toss.WAV
191.042	4.443	2	1	1.47	Semantic/minus.WAV	Semantic/subtract.WAV
195.485	4.443	0	1	0.535	Tones/nullsilence.WAV	Tones/nullsilence.WAV
199.928	4.442	4	1	1.004	Tones/800.WAV	Tones/800.WAV
204.37	4.443	2	1	1.798	Semantic/fingers.WAV	Semantic/hands.WAV
208.813	4.443	4	1	1.455	Tones/375.WAV	Tones/450.WAV
213.256	4.443	0	1	0.587	Tones/nullsilence.WAV	Tones/nullsilence.WAV
217.699	4.443	5	1	1.324	Tones/550800525.WAV	Tones/550800600.WAV
222.142	4.443	0	1	0.829	Tones/nullsilence.WAV	Tones/nullsilence.WAV
226.585	4.442	4	1	2.141	Tones/650.WAV	Tones/575.WAV
231.027	4.443	0	1	0.685	Tones/nullsilence.WAV	Tones/nullsilence.WAV
235.47	4.443	3	1	3.288	Semantic/forgave.WAV	Semantic/maiden.WAV
239.913	4.443	0	1	0.935	Tones/nullsilence.WAV	Tones/nullsilence.WAV
244.356	4.443	1	1	1.005	Semantic/supper.WAV	Semantic/dinner.WAV
248.799	4.443	0	1	0.566	Tones/nullsilence.WAV	Tones/nullsilence.WAV
253.242	4.442	3	1	1.556	Semantic/flow.WAV	Semantic/teaching.WAV
257.684	4.443	3	1	1.954	Semantic/spongy.WAV	Semantic/madam.WAV
262.127	4.443	0	1	0.73	Tones/nullsilence.WAV	Tones/nullsilence.WAV
266.57	4.443	5	1	2.697	Tones/350825400.WAV	Tones/425825400.WAV
271.013	4.443	5	1	1.068	Tones/650475300.WAV	Tones/650475300.WAV
275.456	4.443	1	1	1.648	Semantic/hammer.WAV	Semantic/nail.WAV
279.899	4.442	2	1	1.974	Semantic/earth.WAV	Semantic/ground.WAV
284.341	4.443	5	1	1.307	Tones/425675500.WAV	Tones/425750500.WAV
288.784	4.444	0	1	0.614	Tones/nullsilence.WAV	Tones/nullsilence.WAV
293.228	4.442	4	1	2.267	Tones/300.WAV	Tones/375.WAV
297.67	4.443	0	1	0.58	Tones/nullsilence.WAV	Tones/nullsilence.WAV
302.113	4.443	2	1	1.869	Semantic/teach.WAV	Semantic/learn.WAV
306.556	4.443	0	1	0.502	Tones/nullsilence.WAV	Tones/nullsilence.WAV
310.999	4.442	1	1	3.036	Semantic/ship.WAV	Semantic/boat.WAV
315.441	4.443	0	1	0.824	Tones/nullsilence.WAV	Tones/nullsilence.WAV
319.884	4.443	1	1	1.641	Semantic/life.WAV	Semantic/death.WAV
324.327	4.443	0	1	0.483	Tones/nullsilence.WAV	Tones/nullsilence.WAV
328.77	4.443	2	1	1.586	Semantic/choir.WAV	Semantic/chorus.WAV
333.213	4.443	4	1	0.973	Tones/575.WAV	Tones/650.WAV
337.656	4.442	0	1	0.626	Tones/nullsilence.WAV	Tones/nullsilence.WAV
342.098	4.443	3	0	2.898	Semantic/note.WAV	Semantic/press.WAV
346.541	4.443	5	1	1.302	Tones/875575325.WAV	Tones/875575400.WAV
350.984	4.443	5	1	1.08	Tones/725400775.WAV	Tones/650400775.WAV
355.427	4.443	1	1	1.266	Semantic/jigsaw.WAV	Semantic/puzzle.WAV
359.87	4.443	0	1	0.789	Tones/nullsilence.WAV	Tones/nullsilence.WAV
364.313	4.442	1	1	1.769	Semantic/film.WAV	Semantic/movie.WAV
368.755	4.443	0	1	1.538	Tones/nullsilence.WAV	Tones/nullsilence.WAV
373.198	4.443	4	1	1.143	Tones/700.WAV	Tones/700.WAV
377.641	4.443	5	1	0.979	Tones/325500725.WAV	Tones/325500725.WAV
382.084	4.443	5	1	1.188	Tones/625450850.WAV	Tones/625450775.WAV
386.527	4.443	0	1	0.507	Tones/nullsilence.WAV	Tones/nullsilence.WAV
390.97	4.442	5	1	1.204	Tones/875675300.WAV	Tones/875675300.WAV
395.412	4.443	5	1	1.483	Tones/375750475.WAV	Tones/375750475.WAV
399.855	4.439	0	1	1.149	Tones/nullsilence.WAV	Tones/nullsilence.WAV
