onset	duration	trial_type	accuracy	response_time	stim1_file	stim2_file
0.0	4.443	3	1	1.651	RhymeSpell/mouth.WAV	RhymeSpell/youth.WAV
4.443	4.442	2	1	1.319	RhymeSpell/tone.WAV	RhymeSpell/known.WAV
8.885	4.443	5	1	1.184	Tones/675.WAV	Tones/600.WAV
13.328	4.443	0	1	0.904	Tones/nullsilence.WAV	Tones/nullsilence.WAV
17.771	4.443	3	1	1.854	RhymeSpell/pool.WAV	RhymeSpell/wool.WAV
22.214	4.443	0	1	1.513	Tones/nullsilence.WAV	Tones/nullsilence.WAV
26.657	4.443	5	1	1.501	Tones/600.WAV	Tones/600.WAV
31.1	4.443	5	1	1.588	Tones/325.WAV	Tones/325.WAV
35.543	4.442	1	1	1.619	RhymeSpell/meal.WAV	RhymeSpell/seal.WAV
39.985	4.443	0	1	1.069	Tones/nullsilence.WAV	Tones/nullsilence.WAV
44.428	4.443	3	1	2.228	RhymeSpell/low.WAV	RhymeSpell/vow.WAV
48.871	4.443	6	1	0.752	Tones/425600750.WAV	Tones/425600750.WAV
53.314	4.443	0	1	0.366	Tones/nullsilence.WAV	Tones/nullsilence.WAV
57.757	4.443	0	1	0.248	Tones/nullsilence.WAV	Tones/nullsilence.WAV
62.2	4.442	4	1	1.594	RhymeSpell/wrist.WAV	RhymeSpell/friend.WAV
66.642	4.443	4	1	1.632	RhymeSpell/halt.WAV	RhymeSpell/stain.WAV
71.085	4.443	0	1	2.821	Tones/nullsilence.WAV	Tones/nullsilence.WAV
75.528	4.443	6	1	1.611	Tones/550800525.WAV	Tones/550800600.WAV
79.971	4.443	6	1	1.187	Tones/350825400.WAV	Tones/425825400.WAV
84.414	4.443	0	0	n/a	Tones/nullsilence.WAV	Tones/nullsilence.WAV
88.857	4.442	1	1	2.543	RhymeSpell/cure.WAV	RhymeSpell/sure.WAV
93.299	4.443	2	1	2.259	RhymeSpell/sleek.WAV	RhymeSpell/speak.WAV
97.742	4.443	0	1	0.872	Tones/nullsilence.WAV	Tones/nullsilence.WAV
102.185	4.443	4	1	1.668	RhymeSpell/trust.WAV	RhymeSpell/chalk.WAV
106.628	4.443	2	0	1.88	RhymeSpell/street.WAV	RhymeSpell/wheat.WAV
111.071	4.443	0	1	1.388	Tones/nullsilence.WAV	Tones/nullsilence.WAV
115.514	4.442	6	1	1.791	Tones/650475300.WAV	Tones/650475300.WAV
119.956	4.443	6	1	1.198	Tones/425675500.WAV	Tones/425750500.WAV
124.399	4.443	0	1	0.021	Tones/nullsilence.WAV	Tones/nullsilence.WAV
128.842	4.443	5	0	2.105	Tones/350.WAV	Tones/425.WAV
133.285	4.443	0	1	2.541	Tones/nullsilence.WAV	Tones/nullsilence.WAV
137.728	4.443	2	0	1.687	RhymeSpell/rear.WAV	RhymeSpell/mere.WAV
142.171	4.443	1	1	1.225	RhymeSpell/crown.WAV	RhymeSpell/town.WAV
146.614	4.442	3	1	1.724	RhymeSpell/sword.WAV	RhymeSpell/word.WAV
151.056	4.443	6	1	1.959	Tones/875575325.WAV	Tones/875575400.WAV
155.499	4.443	3	1	1.422	RhymeSpell/head.WAV	RhymeSpell/bead.WAV
159.942	4.443	0	1	0.539	Tones/nullsilence.WAV	Tones/nullsilence.WAV
164.385	4.443	5	1	1.215	Tones/850.WAV	Tones/850.WAV
168.828	4.443	0	1	0.721	Tones/nullsilence.WAV	Tones/nullsilence.WAV
173.271	4.442	6	1	1.077	Tones/725400775.WAV	Tones/650400775.WAV
177.713	4.443	2	1	1.7	RhymeSpell/size.WAV	RhymeSpell/wise.WAV
182.156	4.443	4	1	1.47	RhymeSpell/clash.WAV	RhymeSpell/worse.WAV
186.599	4.443	5	1	1.02	Tones/775.WAV	Tones/700.WAV
191.042	4.443	0	1	0.508	Tones/nullsilence.WAV	Tones/nullsilence.WAV
195.485	4.443	0	1	1.011	Tones/nullsilence.WAV	Tones/nullsilence.WAV
199.928	4.442	4	1	1.625	RhymeSpell/loose.WAV	RhymeSpell/drew.WAV
204.37	4.443	0	1	0.648	Tones/nullsilence.WAV	Tones/nullsilence.WAV
208.813	4.443	4	1	1.626	RhymeSpell/yeast.WAV	RhymeSpell/tooth.WAV
213.256	4.443	0	1	0.739	Tones/nullsilence.WAV	Tones/nullsilence.WAV
217.699	4.443	3	1	1.887	RhymeSpell/shove.WAV	RhymeSpell/wove.WAV
222.142	4.443	5	1	1.096	Tones/625.WAV	Tones/625.WAV
226.585	4.442	2	1	1.843	RhymeSpell/chair.WAV	RhymeSpell/scare.WAV
231.027	4.443	0	1	0.918	Tones/nullsilence.WAV	Tones/nullsilence.WAV
235.47	4.443	1	1	1.277	RhymeSpell/dad.WAV	RhymeSpell/sad.WAV
239.913	4.443	0	1	0.241	Tones/nullsilence.WAV	Tones/nullsilence.WAV
244.356	4.443	4	1	1.917	RhymeSpell/beef.WAV	RhymeSpell/keep.WAV
248.799	4.443	3	0	2.19	RhymeSpell/broad.WAV	RhymeSpell/toad.WAV
253.242	4.443	0	1	1.004	Tones/nullsilence.WAV	Tones/nullsilence.WAV
257.685	4.442	0	1	1.438	Tones/nullsilence.WAV	Tones/nullsilence.WAV
262.127	4.443	4	1	1.785	RhymeSpell/rail.WAV	RhymeSpell/fast.WAV
266.57	4.443	0	1	1.279	Tones/nullsilence.WAV	Tones/nullsilence.WAV
271.013	4.443	1	1	1.687	RhymeSpell/leg.WAV	RhymeSpell/peg.WAV
275.456	4.443	1	1	2.871	RhymeSpell/mule.WAV	RhymeSpell/rule.WAV
279.899	4.443	6	1	1.421	Tones/325500725.WAV	Tones/325500725.WAV
284.342	4.442	6	1	1.365	Tones/625450850.WAV	Tones/625450775.WAV
288.784	4.443	0	1	1.714	Tones/nullsilence.WAV	Tones/nullsilence.WAV
293.227	4.443	4	0	n/a	RhymeSpell/storm.WAV	RhymeSpell/chose.WAV
297.67	4.443	0	1	3.135	Tones/nullsilence.WAV	Tones/nullsilence.WAV
302.113	4.443	2	0	3.097	RhymeSpell/prize.WAV	RhymeSpell/rise.WAV
306.556	4.443	0	1	1.681	Tones/nullsilence.WAV	Tones/nullsilence.WAV
310.999	4.442	1	1	1.511	RhymeSpell/fought.WAV	RhymeSpell/sought.WAV
315.441	4.443	4	1	1.051	RhymeSpell/wage.WAV	RhymeSpell/spice.WAV
319.884	4.443	1	1	1.754	RhymeSpell/beast.WAV	RhymeSpell/least.WAV
324.327	4.443	5	1	1.343	Tones/800.WAV	Tones/800.WAV
328.77	4.443	5	1	0.987	Tones/375.WAV	Tones/450.WAV
333.213	4.443	0	1	0.836	Tones/nullsilence.WAV	Tones/nullsilence.WAV
337.656	4.443	4	1	1.534	RhymeSpell/dome.WAV	RhymeSpell/fool.WAV
342.099	4.442	0	1	0.908	Tones/nullsilence.WAV	Tones/nullsilence.WAV
346.541	4.443	1	1	1.622	RhymeSpell/grant.WAV	RhymeSpell/slant.WAV
350.984	4.443	1	1	1.419	RhymeSpell/numb.WAV	RhymeSpell/thumb.WAV
355.427	4.443	1	1	1.485	RhymeSpell/chess.WAV	RhymeSpell/press.WAV
359.87	4.443	6	1	1.437	Tones/875675300.WAV	Tones/875675300.WAV
364.313	4.443	3	1	1.462	RhymeSpell/damp.WAV	RhymeSpell/swamp.WAV
368.756	4.442	2	1	1.188	RhymeSpell/true.WAV	RhymeSpell/grew.WAV
373.198	4.443	0	1	0.826	Tones/nullsilence.WAV	Tones/nullsilence.WAV
377.641	4.443	5	1	1.936	Tones/650.WAV	Tones/575.WAV
382.084	4.443	3	1	1.474	RhymeSpell/shown.WAV	RhymeSpell/clown.WAV
386.527	4.443	4	1	2.348	RhymeSpell/paint.WAV	RhymeSpell/sigh.WAV
390.97	4.443	1	1	1.891	RhymeSpell/stone.WAV	RhymeSpell/zone.WAV
395.413	4.442	0	1	1.086	Tones/nullsilence.WAV	Tones/nullsilence.WAV
399.855	4.443	6	1	1.492	Tones/375750475.WAV	Tones/375750475.WAV
404.298	4.443	0	1	1.143	Tones/nullsilence.WAV	Tones/nullsilence.WAV
408.741	4.443	0	1	0.911	Tones/nullsilence.WAV	Tones/nullsilence.WAV
413.184	4.443	2	1	1.922	RhymeSpell/spear.WAV	RhymeSpell/sphere.WAV
417.627	4.443	0	0	n/a	Tones/nullsilence.WAV	Tones/nullsilence.WAV
422.07	4.442	6	1	1.516	Tones/375800525.WAV	Tones/375800525.WAV
426.512	4.443	2	1	2.613	RhymeSpell/pro.WAV	RhymeSpell/mow.WAV
430.955	4.443	0	1	0.657	Tones/nullsilence.WAV	Tones/nullsilence.WAV
435.398	4.443	4	1	2.367	RhymeSpell/home.WAV	RhymeSpell/form.WAV
439.841	4.443	3	0	2.605	RhymeSpell/smooth.WAV	RhymeSpell/booth.WAV
444.284	4.443	0	1	0.941	Tones/nullsilence.WAV	Tones/nullsilence.WAV
448.727	4.442	1	1	1.837	RhymeSpell/grief.WAV	RhymeSpell/thief.WAV
453.169	4.443	2	1	1.935	RhymeSpell/top.WAV	RhymeSpell/swap.WAV
457.612	4.443	5	1	2.089	Tones/300.WAV	Tones/375.WAV
462.055	4.443	0	1	0.61	Tones/nullsilence.WAV	Tones/nullsilence.WAV
466.498	4.443	5	1	1.214	Tones/575.WAV	Tones/650.WAV
470.941	4.443	0	1	0.524	Tones/nullsilence.WAV	Tones/nullsilence.WAV
475.384	4.439	4	1	1.151	RhymeSpell/dream.WAV	RhymeSpell/blame.WAV
