onset	duration	trial_type	accuracy	response_time	stim1_file	stim2_file
0.0	4.442	2	1	0.763	RhymeSpell/crawl.WAV	RhymeSpell/ball.WAV
4.442	4.443	2	1	0.815	RhymeSpell/moan.WAV	RhymeSpell/bone.WAV
8.885	4.443	0	1	0.861	Tones/nullsilence.WAV	Tones/nullsilence.WAV
13.328	4.443	3	1	0.727	RhymeSpell/harm.WAV	RhymeSpell/warm.WAV
17.771	4.443	0	1	0.815	Tones/nullsilence.WAV	Tones/nullsilence.WAV
22.214	4.443	3	0	1.726	RhymeSpell/dull.WAV	RhymeSpell/pull.WAV
26.657	4.442	5	1	0.935	Tones/700.WAV	Tones/700.WAV
31.099	4.443	1	0	1.028	RhymeSpell/dime.WAV	RhymeSpell/lime.WAV
35.542	4.443	0	1	1.298	Tones/nullsilence.WAV	Tones/nullsilence.WAV
39.985	4.443	1	1	0.718	RhymeSpell/thread.WAV	RhymeSpell/dread.WAV
44.428	4.443	4	1	1.058	RhymeSpell/dash.WAV	RhymeSpell/brow.WAV
48.871	4.443	2	1	1.049	RhymeSpell/though.WAV	RhymeSpell/blow.WAV
53.314	4.442	2	1	2.152	RhymeSpell/greet.WAV	RhymeSpell/neat.WAV
57.756	4.443	0	1	2.35	Tones/nullsilence.WAV	Tones/nullsilence.WAV
62.199	4.443	1	1	1.299	RhymeSpell/mad.WAV	RhymeSpell/pad.WAV
66.642	4.443	0	1	0.576	Tones/nullsilence.WAV	Tones/nullsilence.WAV
71.085	4.443	5	1	0.759	Tones/450.WAV	Tones/525.WAV
75.528	4.443	0	1	0.736	Tones/nullsilence.WAV	Tones/nullsilence.WAV
79.971	4.442	3	1	0.945	RhymeSpell/tough.WAV	RhymeSpell/cough.WAV
84.413	4.443	6	1	1.153	Tones/350475625.WAV	Tones/350475625.WAV
88.856	4.443	1	1	0.988	RhymeSpell/drum.WAV	RhymeSpell/gum.WAV
93.299	4.443	0	1	0.881	Tones/nullsilence.WAV	Tones/nullsilence.WAV
97.742	4.443	5	1	1.049	Tones/825.WAV	Tones/750.WAV
102.185	4.443	5	1	0.894	Tones/875.WAV	Tones/875.WAV
106.628	4.443	2	1	0.924	RhymeSpell/comb.WAV	RhymeSpell/chrome.WAV
111.071	4.442	0	1	1.274	Tones/nullsilence.WAV	Tones/nullsilence.WAV
115.513	4.443	3	1	0.856	RhymeSpell/couch.WAV	RhymeSpell/touch.WAV
119.956	4.443	0	1	0.875	Tones/nullsilence.WAV	Tones/nullsilence.WAV
124.399	4.443	6	0	1.049	Tones/325575725.WAV	Tones/325500725.WAV
128.842	4.443	0	1	0.818	Tones/nullsilence.WAV	Tones/nullsilence.WAV
133.285	4.443	3	1	0.878	RhymeSpell/gull.WAV	RhymeSpell/bull.WAV
137.728	4.442	4	1	1.011	RhymeSpell/goes.WAV	RhymeSpell/lap.WAV
142.17	4.443	5	1	0.755	Tones/525.WAV	Tones/525.WAV
146.613	4.443	1	0	1.055	RhymeSpell/pay.WAV	RhymeSpell/play.WAV
151.056	4.443	0	1	1.093	Tones/nullsilence.WAV	Tones/nullsilence.WAV
155.499	4.443	4	1	0.825	RhymeSpell/staff.WAV	RhymeSpell/gain.WAV
159.942	4.443	5	1	0.677	Tones/425.WAV	Tones/425.WAV
164.385	4.442	0	1	0.855	Tones/nullsilence.WAV	Tones/nullsilence.WAV
168.827	4.443	4	1	0.753	RhymeSpell/scale.WAV	RhymeSpell/fly.WAV
173.27	4.443	0	1	0.661	Tones/nullsilence.WAV	Tones/nullsilence.WAV
177.713	4.443	6	1	1.275	Tones/425700850.WAV	Tones/425700775.WAV
182.156	4.443	0	1	0.844	Tones/nullsilence.WAV	Tones/nullsilence.WAV
186.599	4.443	1	0	1.165	RhymeSpell/hint.WAV	RhymeSpell/print.WAV
191.042	4.442	0	1	1.095	Tones/nullsilence.WAV	Tones/nullsilence.WAV
195.484	4.443	6	1	1.177	Tones/525800450.WAV	Tones/525800450.WAV
199.927	4.443	0	1	0.998	Tones/nullsilence.WAV	Tones/nullsilence.WAV
204.37	4.443	5	1	0.996	Tones/400.WAV	Tones/400.WAV
208.813	4.443	0	1	1.035	Tones/nullsilence.WAV	Tones/nullsilence.WAV
213.256	4.443	3	1	1.076	RhymeSpell/foot.WAV	RhymeSpell/hoot.WAV
217.699	4.443	0	1	0.95	Tones/nullsilence.WAV	Tones/nullsilence.WAV
222.142	4.442	3	1	0.965	RhymeSpell/glove.WAV	RhymeSpell/drove.WAV
226.584	4.443	0	1	0.971	Tones/nullsilence.WAV	Tones/nullsilence.WAV
231.027	4.443	2	1	1.0	RhymeSpell/trade.WAV	RhymeSpell/paid.WAV
235.47	4.443	3	1	1.45	RhymeSpell/moth.WAV	RhymeSpell/both.WAV
239.913	4.443	4	1	0.848	RhymeSpell/start.WAV	RhymeSpell/pure.WAV
244.356	4.443	6	1	1.143	Tones/600550400.WAV	Tones/675550400.WAV
248.799	4.442	0	1	1.007	Tones/nullsilence.WAV	Tones/nullsilence.WAV
253.241	4.443	5	1	0.855	Tones/500.WAV	Tones/500.WAV
257.684	4.443	0	1	0.796	Tones/nullsilence.WAV	Tones/nullsilence.WAV
262.127	4.443	6	1	0.872	Tones/450650850.WAV	Tones/375650850.WAV
266.57	4.443	0	1	0.747	Tones/nullsilence.WAV	Tones/nullsilence.WAV
271.013	4.443	1	1	1.816	RhymeSpell/wall.WAV	RhymeSpell/tall.WAV
275.456	4.442	0	1	1.174	Tones/nullsilence.WAV	Tones/nullsilence.WAV
279.898	4.443	2	1	0.883	RhymeSpell/glad.WAV	RhymeSpell/plaid.WAV
284.341	4.443	0	1	0.946	Tones/nullsilence.WAV	Tones/nullsilence.WAV
288.784	4.443	5	1	0.892	Tones/725.WAV	Tones/650.WAV
293.227	4.443	0	1	1.838	Tones/nullsilence.WAV	Tones/nullsilence.WAV
297.67	4.459	4	1	1.002	RhymeSpell/strut.WAV	RhymeSpell/glint.WAV
302.129	4.443	2	1	0.871	RhymeSpell/sheet.WAV	RhymeSpell/heat.WAV
306.572	4.443	6	1	0.889	Tones/750300700.WAV	Tones/750300700.WAV
311.015	4.442	2	1	1.079	RhymeSpell/whom.WAV	RhymeSpell/womb.WAV
315.457	4.443	4	1	1.071	RhymeSpell/spare.WAV	RhymeSpell/cow.WAV
319.9	4.443	0	1	0.84	Tones/nullsilence.WAV	Tones/nullsilence.WAV
324.343	4.443	3	1	1.15	RhymeSpell/fat.WAV	RhymeSpell/swat.WAV
328.786	4.443	4	1	0.67	RhymeSpell/team.WAV	RhymeSpell/brief.WAV
333.229	4.443	0	1	0.815	Tones/nullsilence.WAV	Tones/nullsilence.WAV
337.672	4.442	5	1	0.983	Tones/550.WAV	Tones/550.WAV
342.114	4.443	0	1	0.829	Tones/nullsilence.WAV	Tones/nullsilence.WAV
346.557	4.443	3	1	1.316	RhymeSpell/bad.WAV	RhymeSpell/wad.WAV
351.0	4.443	1	1	0.967	RhymeSpell/glare.WAV	RhymeSpell/share.WAV
355.443	4.443	0	1	0.938	Tones/nullsilence.WAV	Tones/nullsilence.WAV
359.886	4.443	1	1	0.895	RhymeSpell/cold.WAV	RhymeSpell/told.WAV
364.329	4.443	6	1	1.189	Tones/775625825.WAV	Tones/775625825.WAV
368.772	4.442	1	1	1.634	RhymeSpell/dawn.WAV	RhymeSpell/lawn.WAV
373.214	4.443	1	1	0.64	RhymeSpell/broke.WAV	RhymeSpell/joke.WAV
377.657	4.443	4	1	0.815	RhymeSpell/craft.WAV	RhymeSpell/young.WAV
382.1	4.443	0	1	0.679	Tones/nullsilence.WAV	Tones/nullsilence.WAV
386.543	4.443	3	1	1.062	RhymeSpell/hull.WAV	RhymeSpell/full.WAV
390.986	4.443	3	0	1.381	RhymeSpell/freight.WAV	RhymeSpell/height.WAV
395.429	4.442	5	1	0.728	Tones/750.WAV	Tones/675.WAV
399.871	4.443	2	1	0.66	RhymeSpell/stool.WAV	RhymeSpell/ghoul.WAV
404.314	4.443	2	0	1.095	RhymeSpell/hoe.WAV	RhymeSpell/throw.WAV
408.757	4.443	0	1	0.972	Tones/nullsilence.WAV	Tones/nullsilence.WAV
413.2	4.443	6	1	0.922	Tones/875675500.WAV	Tones/875675500.WAV
417.643	4.443	3	1	1.159	RhymeSpell/cost.WAV	RhymeSpell/ghost.WAV
422.086	4.442	0	1	1.112	Tones/nullsilence.WAV	Tones/nullsilence.WAV
426.528	4.443	6	1	1.112	Tones/650350575.WAV	Tones/650350575.WAV
430.971	4.443	2	1	0.714	RhymeSpell/gas.WAV	RhymeSpell/pass.WAV
435.414	4.443	3	1	0.919	RhymeSpell/blood.WAV	RhymeSpell/wood.WAV
439.857	4.443	0	1	0.793	Tones/nullsilence.WAV	Tones/nullsilence.WAV
444.3	4.443	4	1	0.859	RhymeSpell/vend.WAV	RhymeSpell/space.WAV
448.743	4.442	2	1	0.815	RhymeSpell/choose.WAV	RhymeSpell/lose.WAV
453.185	4.443	6	1	0.96	Tones/700550775.WAV	Tones/700475775.WAV
457.628	4.443	0	1	1.042	Tones/nullsilence.WAV	Tones/nullsilence.WAV
462.071	4.443	6	0	1.4	Tones/825600375.WAV	Tones/825675375.WAV
466.514	4.443	5	1	0.675	Tones/475.WAV	Tones/550.WAV
470.957	4.443	0	1	0.633	Tones/nullsilence.WAV	Tones/nullsilence.WAV
475.4	4.439	0	0	1.858	Tones/nullsilence.WAV	Tones/nullsilence.WAV
