onset	duration	trial_type	accuracy	response_time	stim1_file	stim2_file
0.0	4.443	3	0	n/a	Semantic/handle.WAV	Semantic/depth.WAV
4.443	4.442	2	0	2.702	Semantic/yarn.WAV	Semantic/knit.WAV
8.885	4.443	3	1	2.477	Semantic/dessert.WAV	Semantic/bony.WAV
13.328	4.443	0	1	1.99	Tones/nullsilence.WAV	Tones/nullsilence.WAV
17.771	4.443	2	0	2.412	Semantic/dish.WAV	Semantic/plate.WAV
22.214	4.443	4	1	1.776	Tones/675.WAV	Tones/600.WAV
26.657	4.443	0	1	2.612	Tones/nullsilence.WAV	Tones/nullsilence.WAV
31.1	4.442	4	1	2.584	Tones/600.WAV	Tones/600.WAV
35.542	4.443	4	1	1.562	Tones/325.WAV	Tones/325.WAV
39.985	4.443	4	1	2.545	Tones/350.WAV	Tones/425.WAV
44.428	4.443	0	1	1.586	Tones/nullsilence.WAV	Tones/nullsilence.WAV
48.871	4.443	4	0	n/a	Tones/850.WAV	Tones/850.WAV
53.314	4.443	0	1	1.553	Tones/nullsilence.WAV	Tones/nullsilence.WAV
57.757	4.442	3	1	2.718	Semantic/flush.WAV	Semantic/cliff.WAV
62.199	4.443	0	1	1.913	Tones/nullsilence.WAV	Tones/nullsilence.WAV
66.642	4.443	1	1	1.409	Semantic/ape.WAV	Semantic/monkey.WAV
71.085	4.443	1	1	3.063	Semantic/spoon.WAV	Semantic/fork.WAV
75.528	4.443	0	1	2.013	Tones/nullsilence.WAV	Tones/nullsilence.WAV
79.971	4.443	1	1	1.337	Semantic/awake.WAV	Semantic/asleep.WAV
84.414	4.442	0	1	1.429	Tones/nullsilence.WAV	Tones/nullsilence.WAV
88.856	4.443	2	1	1.524	Semantic/senate.WAV	Semantic/congress.WAV
93.299	4.443	0	1	1.417	Tones/nullsilence.WAV	Tones/nullsilence.WAV
97.742	4.443	3	1	1.863	Semantic/steam.WAV	Semantic/gap.WAV
102.185	4.443	0	1	1.355	Tones/nullsilence.WAV	Tones/nullsilence.WAV
106.628	4.443	2	1	1.08	Semantic/checkers.WAV	Semantic/chess.WAV
111.071	4.443	5	1	1.672	Tones/425600750.WAV	Tones/425600750.WAV
115.514	4.442	0	1	1.53	Tones/nullsilence.WAV	Tones/nullsilence.WAV
119.956	4.443	1	1	1.593	Semantic/rodent.WAV	Semantic/rat.WAV
124.399	4.443	2	1	1.572	Semantic/robber.WAV	Semantic/thief.WAV
128.842	4.443	3	0	1.952	Semantic/bone.WAV	Semantic/mountain.WAV
133.285	4.443	4	1	2.057	Tones/775.WAV	Tones/700.WAV
137.728	4.443	2	1	1.987	Semantic/purse.WAV	Semantic/wallet.WAV
142.171	4.442	0	1	1.482	Tones/nullsilence.WAV	Tones/nullsilence.WAV
146.613	4.443	2	1	1.924	Semantic/sunny.WAV	Semantic/cloudy.WAV
151.056	4.443	2	1	1.573	Semantic/hide.WAV	Semantic/seek.WAV
155.499	4.443	0	1	2.497	Tones/nullsilence.WAV	Tones/nullsilence.WAV
159.942	4.443	1	1	1.719	Semantic/mom.WAV	Semantic/dad.WAV
164.385	4.443	4	1	2.309	Tones/625.WAV	Tones/625.WAV
168.828	4.442	3	1	1.706	Semantic/joke.WAV	Semantic/chart.WAV
173.27	4.443	3	0	2.351	Semantic/heavy.WAV	Semantic/wish.WAV
177.713	4.443	3	1	1.847	Semantic/plug.WAV	Semantic/belly.WAV
182.156	4.443	0	0	n/a	Tones/nullsilence.WAV	Tones/nullsilence.WAV
186.599	4.443	3	0	2.908	Semantic/steer.WAV	Semantic/toss.WAV
191.042	4.443	2	1	1.483	Semantic/minus.WAV	Semantic/subtract.WAV
195.485	4.442	0	0	n/a	Tones/nullsilence.WAV	Tones/nullsilence.WAV
199.927	4.443	4	1	2.217	Tones/800.WAV	Tones/800.WAV
204.37	4.443	2	1	2.094	Semantic/fingers.WAV	Semantic/hands.WAV
208.813	4.443	4	0	1.692	Tones/375.WAV	Tones/450.WAV
213.256	4.443	0	1	0.691	Tones/nullsilence.WAV	Tones/nullsilence.WAV
217.699	4.443	5	0	1.671	Tones/550800525.WAV	Tones/550800600.WAV
222.142	4.443	0	1	0.648	Tones/nullsilence.WAV	Tones/nullsilence.WAV
226.585	4.442	4	1	2.232	Tones/650.WAV	Tones/575.WAV
231.027	4.443	0	1	1.635	Tones/nullsilence.WAV	Tones/nullsilence.WAV
235.47	4.443	3	1	2.584	Semantic/forgave.WAV	Semantic/maiden.WAV
239.913	4.443	0	0	n/a	Tones/nullsilence.WAV	Tones/nullsilence.WAV
244.356	4.443	1	1	1.375	Semantic/supper.WAV	Semantic/dinner.WAV
248.799	4.443	0	0	n/a	Tones/nullsilence.WAV	Tones/nullsilence.WAV
253.242	4.442	3	1	2.323	Semantic/flow.WAV	Semantic/teaching.WAV
257.684	4.443	3	1	2.305	Semantic/spongy.WAV	Semantic/madam.WAV
262.127	4.443	0	0	n/a	Tones/nullsilence.WAV	Tones/nullsilence.WAV
266.57	4.443	5	0	1.117	Tones/350825400.WAV	Tones/425825400.WAV
271.013	4.443	5	1	2.644	Tones/650475300.WAV	Tones/650475300.WAV
275.456	4.443	1	1	2.019	Semantic/hammer.WAV	Semantic/nail.WAV
279.899	4.442	2	1	1.245	Semantic/earth.WAV	Semantic/ground.WAV
284.341	4.443	5	0	n/a	Tones/425675500.WAV	Tones/425750500.WAV
288.784	4.443	0	0	n/a	Tones/nullsilence.WAV	Tones/nullsilence.WAV
293.227	4.443	4	0	n/a	Tones/300.WAV	Tones/375.WAV
297.67	4.443	0	1	2.425	Tones/nullsilence.WAV	Tones/nullsilence.WAV
302.113	4.443	2	1	2.278	Semantic/teach.WAV	Semantic/learn.WAV
306.556	4.443	0	0	n/a	Tones/nullsilence.WAV	Tones/nullsilence.WAV
310.999	4.442	1	1	1.568	Semantic/ship.WAV	Semantic/boat.WAV
315.441	4.443	0	1	2.608	Tones/nullsilence.WAV	Tones/nullsilence.WAV
319.884	4.443	1	1	1.19	Semantic/life.WAV	Semantic/death.WAV
324.327	4.443	0	1	1.678	Tones/nullsilence.WAV	Tones/nullsilence.WAV
328.77	4.443	2	0	n/a	Semantic/choir.WAV	Semantic/chorus.WAV
333.213	4.443	4	1	2.358	Tones/575.WAV	Tones/650.WAV
337.656	4.442	0	0	n/a	Tones/nullsilence.WAV	Tones/nullsilence.WAV
342.098	4.443	3	1	3.108	Semantic/note.WAV	Semantic/press.WAV
346.541	4.443	5	1	1.503	Tones/875575325.WAV	Tones/875575400.WAV
350.984	4.443	5	0	2.154	Tones/725400775.WAV	Tones/650400775.WAV
355.427	4.443	1	0	2.605	Semantic/jigsaw.WAV	Semantic/puzzle.WAV
359.87	4.443	0	1	0.544	Tones/nullsilence.WAV	Tones/nullsilence.WAV
364.313	4.442	1	0	n/a	Semantic/film.WAV	Semantic/movie.WAV
368.755	4.443	0	0	n/a	Tones/nullsilence.WAV	Tones/nullsilence.WAV
373.198	4.443	4	0	n/a	Tones/700.WAV	Tones/700.WAV
377.641	4.443	5	1	1.187	Tones/325500725.WAV	Tones/325500725.WAV
382.084	4.443	5	1	2.521	Tones/625450850.WAV	Tones/625450775.WAV
386.527	4.443	0	0	n/a	Tones/nullsilence.WAV	Tones/nullsilence.WAV
390.97	4.443	5	1	2.792	Tones/875675300.WAV	Tones/875675300.WAV
395.413	4.442	5	1	2.402	Tones/375750475.WAV	Tones/375750475.WAV
399.855	4.439	0	0	n/a	Tones/nullsilence.WAV	Tones/nullsilence.WAV
