onset	duration	trial_type	accuracy	response_time	stim1_file	stim2_file
0.0	4.443	3	1	1.46	Semantic/system.bmp	Semantic/head2.bmp
4.443	4.443	2	1	1.213	Semantic/speak.bmp	Semantic/talk2.bmp
8.886	4.443	3	1	1.103	Semantic/cobra.bmp	Semantic/slipper2.bmp
13.329	4.442	0	1	0.938	Semantic/null.bmp	Semantic/null.bmp
17.771	4.443	2	1	2.084	Semantic/distance.bmp	Semantic/mile1.bmp
22.214	4.443	4	1	1.098	Symbols/t.bmp	Symbols/g2.bmp
26.657	4.443	0	1	1.409	Semantic/null.bmp	Semantic/null.bmp
31.1	4.443	4	1	1.866	Symbols/w.bmp	Symbols/w2.bmp
35.543	4.443	4	1	1.836	Symbols/u.bmp	Symbols/u2.bmp
39.986	4.443	4	1	2.222	Symbols/s.bmp	Symbols/j2.bmp
44.429	4.442	0	1	1.124	Semantic/null.bmp	Semantic/null.bmp
48.871	4.443	4	1	0.655	Symbols/l.bmp	Symbols/l2.bmp
53.314	4.443	0	1	1.829	Semantic/null.bmp	Semantic/null.bmp
57.757	4.443	3	1	1.618	Semantic/chill.bmp	Semantic/hawk2.bmp
62.2	4.443	0	1	2.863	Semantic/null.bmp	Semantic/null.bmp
66.643	4.443	1	1	2.21	Semantic/thin.bmp	Semantic/fat2.bmp
71.086	4.442	1	1	1.403	Semantic/sketch.bmp	Semantic/draw2.bmp
75.528	4.443	0	1	1.649	Semantic/null.bmp	Semantic/null.bmp
79.971	4.443	1	1	1.379	Semantic/dog.bmp	Semantic/cat1.bmp
84.414	4.443	0	0	1.89	Semantic/null.bmp	Semantic/null.bmp
88.857	4.443	2	0	n/a	Semantic/guide.bmp	Semantic/tour2.bmp
93.3	4.443	0	1	1.501	Semantic/null.bmp	Semantic/null.bmp
97.743	4.442	3	1	1.138	Semantic/adult.bmp	Semantic/pond1.bmp
102.185	4.443	0	1	2.0	Semantic/null.bmp	Semantic/null.bmp
106.628	4.443	2	1	2.425	Semantic/reef.bmp	Semantic/coral1.bmp
111.071	4.443	5	1	1.083	Symbols/mfc.bmp	Symbols/mfc1.bmp
115.514	4.443	0	0	n/a	Semantic/null.bmp	Semantic/null.bmp
119.957	4.443	1	1	1.189	Semantic/little.bmp	Semantic/big1.bmp
124.4	4.443	2	1	2.17	Semantic/motion.bmp	Semantic/movement2.bmp
128.843	4.442	3	1	1.947	Semantic/hoof.bmp	Semantic/stitch2.bmp
133.285	4.443	4	1	1.208	Symbols/c.bmp	Symbols/v1.bmp
137.728	4.443	2	1	1.245	Semantic/salad.bmp	Semantic/lettuce1.bmp
142.171	4.443	0	1	2.689	Semantic/null.bmp	Semantic/null.bmp
146.614	4.443	2	1	2.817	Semantic/lip.bmp	Semantic/kiss1.bmp
151.057	4.443	2	1	1.043	Semantic/shout.bmp	Semantic/yell1.bmp
155.5	4.442	0	1	1.33	Semantic/null.bmp	Semantic/null.bmp
159.942	4.443	1	1	2.537	Semantic/dime.bmp	Semantic/nickel1.bmp
164.385	4.443	4	1	1.261	Symbols/n.bmp	Symbols/n1.bmp
168.828	4.443	3	0	n/a	Semantic/cream.bmp	Semantic/grip2.bmp
173.271	4.443	3	0	1.646	Semantic/trust.bmp	Semantic/dozen1.bmp
177.714	4.443	3	1	1.432	Semantic/sailing.bmp	Semantic/nest2.bmp
182.157	4.442	0	1	2.567	Semantic/null.bmp	Semantic/null.bmp
186.599	4.443	3	1	1.43	Semantic/pigeon.bmp	Semantic/gamble2.bmp
191.042	4.443	2	0	1.242	Semantic/maple.bmp	Semantic/syrup2.bmp
195.485	4.443	0	1	1.161	Semantic/null.bmp	Semantic/null.bmp
199.928	4.54	4	1	0.772	Symbols/i.bmp	Symbols/i2.bmp
204.468	4.443	2	1	1.057	Semantic/hop.bmp	Semantic/skip1.bmp
208.911	4.443	4	1	0.869	Symbols/r.bmp	Symbols/z2.bmp
213.354	4.443	0	1	0.778	Semantic/null.bmp	Semantic/null.bmp
217.797	4.443	5	1	0.98	Symbols/crs.bmp	Symbols/cre2.bmp
222.24	4.443	0	1	0.666	Semantic/null.bmp	Semantic/null.bmp
226.683	4.443	4	1	0.92	Symbols/p.bmp	Symbols/s1.bmp
231.126	4.442	0	1	2.824	Semantic/null.bmp	Semantic/null.bmp
235.568	4.443	3	1	2.34	Semantic/blanket.bmp	Semantic/split2.bmp
240.011	4.443	0	1	1.084	Semantic/null.bmp	Semantic/null.bmp
244.454	4.443	1	1	1.122	Semantic/yours.bmp	Semantic/mine1.bmp
248.897	4.443	0	1	1.494	Semantic/null.bmp	Semantic/null.bmp
253.34	4.443	3	1	1.266	Semantic/corn.bmp	Semantic/blame1.bmp
257.783	4.442	3	1	2.116	Semantic/hunter.bmp	Semantic/lemon2.bmp
262.225	4.443	0	1	2.427	Semantic/null.bmp	Semantic/null.bmp
266.668	4.443	5	1	1.403	Symbols/pcf.bmp	Symbols/kcf2.bmp
271.111	4.443	5	1	1.134	Symbols/van.bmp	Symbols/van2.bmp
275.554	4.443	1	1	1.027	Semantic/prison.bmp	Semantic/jail2.bmp
279.997	4.443	2	0	1.093	Semantic/hoot.bmp	Semantic/owl2.bmp
284.44	4.442	5	1	1.356	Symbols/jzd.bmp	Symbols/jbd2.bmp
288.882	4.443	0	1	0.775	Semantic/null.bmp	Semantic/null.bmp
293.325	4.443	4	1	1.196	Symbols/v.bmp	Symbols/h1.bmp
297.768	4.443	0	1	0.718	Semantic/null.bmp	Semantic/null.bmp
302.211	4.443	2	1	1.069	Semantic/water.bmp	Semantic/drink2.bmp
306.654	4.443	0	0	1.023	Semantic/null.bmp	Semantic/null.bmp
311.097	4.442	1	1	1.161	Semantic/table.bmp	Semantic/chair1.bmp
315.539	4.443	0	1	2.438	Semantic/null.bmp	Semantic/null.bmp
319.982	4.443	1	1	1.947	Semantic/vine.bmp	Semantic/grape2.bmp
324.425	4.443	0	1	2.235	Semantic/null.bmp	Semantic/null.bmp
328.868	4.443	2	1	0.893	Semantic/throw.bmp	Semantic/catch1.bmp
333.311	4.443	4	1	1.05	Symbols/h.bmp	Symbols/c2.bmp
337.754	4.443	0	1	0.683	Semantic/null.bmp	Semantic/null.bmp
342.197	4.442	3	1	1.226	Semantic/able.bmp	Semantic/party2.bmp
346.639	4.443	5	1	1.25	Symbols/ksg.bmp	Symbols/ksj2.bmp
351.082	4.443	5	1	1.133	Symbols/uab.bmp	Symbols/iab1.bmp
355.525	4.443	1	1	1.707	Semantic/lend.bmp	Semantic/borrow1.bmp
359.968	4.443	0	1	2.327	Semantic/null.bmp	Semantic/null.bmp
364.411	4.443	1	1	0.911	Semantic/silver.bmp	Semantic/gold2.bmp
368.854	4.442	0	1	1.09	Semantic/null.bmp	Semantic/null.bmp
373.296	4.443	4	1	1.826	Symbols/m.bmp	Symbols/m2.bmp
377.739	4.443	5	1	1.434	Symbols/upw.bmp	Symbols/upw1.bmp
382.182	4.443	5	1	0.912	Symbols/myh.bmp	Symbols/myl1.bmp
386.625	4.443	0	1	1.74	Semantic/null.bmp	Semantic/null.bmp
391.068	4.443	5	0	n/a	Symbols/hio.bmp	Symbols/hio2.bmp
395.511	4.442	5	0	2.473	Symbols/mey.bmp	Symbols/mey2.bmp
399.953	4.439	0	1	0.784	Semantic/null.bmp	Semantic/null.bmp
