onset	duration	trial_type	accuracy	response_time	stim1_file	stim2_file
0.0	4.443	4	1	1.288	Symbols/z.bmp	Symbols/t1.bmp
4.443	4.443	2	1	0.97	Semantic/seafood.bmp	Semantic/shrimp2.bmp
8.886	4.442	0	1	1.492	Semantic/null.bmp	Semantic/null.bmp
13.328	4.444	4	1	0.644	Symbols/j.bmp	Symbols/o1.bmp
17.772	4.442	5	1	1.271	Symbols/odt.bmp	Symbols/odt2.bmp
22.214	4.443	0	1	1.543	Semantic/null.bmp	Semantic/null.bmp
26.657	4.443	5	0	n/a	Symbols/lfa.bmp	Symbols/lfa1.bmp
31.1	4.443	4	1	1.134	Symbols/b.bmp	Symbols/b2.bmp
35.543	4.442	4	1	0.878	Symbols/y.bmp	Symbols/y1.bmp
39.985	4.443	0	1	1.879	Semantic/null.bmp	Semantic/null.bmp
44.428	4.443	1	1	1.381	Semantic/noun.bmp	Semantic/verb2.bmp
48.871	4.443	2	1	1.288	Semantic/save.bmp	Semantic/keep1.bmp
53.314	4.443	0	1	1.603	Semantic/null.bmp	Semantic/null.bmp
57.757	4.443	3	1	2.022	Semantic/jewel.bmp	Semantic/moan2.bmp
62.2	4.443	5	0	1.29	Symbols/zti.bmp	Symbols/zvi1.bmp
66.643	4.442	1	1	1.256	Semantic/washer.bmp	Semantic/dryer2.bmp
71.085	4.443	0	1	2.123	Semantic/null.bmp	Semantic/null.bmp
75.528	4.443	1	1	1.585	Semantic/sock.bmp	Semantic/shoe1.bmp
79.971	4.443	0	1	1.24	Semantic/null.bmp	Semantic/null.bmp
84.414	4.443	1	1	1.073	Semantic/touch.bmp	Semantic/feel1.bmp
88.857	4.443	0	1	2.123	Semantic/null.bmp	Semantic/null.bmp
93.3	4.442	2	1	1.285	Semantic/glue.bmp	Semantic/sticky1.bmp
97.742	4.443	0	1	1.312	Semantic/null.bmp	Semantic/null.bmp
102.185	4.443	1	1	1.52	Semantic/yell.bmp	Semantic/scream2.bmp
106.628	4.443	0	1	2.378	Semantic/null.bmp	Semantic/null.bmp
111.071	4.443	2	1	2.306	Semantic/temper.bmp	Semantic/tantrum2.bmp
115.514	4.443	2	0	1.865	Semantic/cheese.bmp	Semantic/cracker2.bmp
119.957	4.443	0	1	1.751	Semantic/null.bmp	Semantic/null.bmp
124.4	4.442	3	1	1.545	Semantic/rubber.bmp	Semantic/straw1.bmp
128.842	4.443	0	1	1.38	Semantic/null.bmp	Semantic/null.bmp
133.285	4.443	4	1	0.746	Symbols/a.bmp	Symbols/a1.bmp
137.728	4.443	0	1	1.388	Semantic/null.bmp	Semantic/null.bmp
142.171	4.443	1	1	1.517	Semantic/winner.bmp	Semantic/loser1.bmp
146.614	4.443	1	1	1.418	Semantic/start.bmp	Semantic/finish1.bmp
151.057	4.442	2	1	1.559	Semantic/children.bmp	Semantic/kids1.bmp
155.499	4.443	0	1	1.657	Semantic/null.bmp	Semantic/null.bmp
159.942	4.443	1	1	2.429	Semantic/question.bmp	Semantic/answer1.bmp
164.385	4.443	0	1	2.534	Semantic/null.bmp	Semantic/null.bmp
168.828	4.443	3	0	n/a	Semantic/stream.bmp	Semantic/rear1.bmp
173.271	4.443	0	1	1.875	Semantic/null.bmp	Semantic/null.bmp
177.714	4.442	3	1	1.299	Semantic/hearing.bmp	Semantic/bottle2.bmp
182.156	4.443	0	1	2.027	Semantic/null.bmp	Semantic/null.bmp
186.599	4.443	1	1	1.351	Semantic/above.bmp	Semantic/below1.bmp
191.042	4.443	4	1	1.261	Symbols/e.bmp	Symbols/e1.bmp
195.485	4.443	0	1	2.602	Semantic/null.bmp	Semantic/null.bmp
199.928	4.443	1	1	1.173	Semantic/circus.bmp	Semantic/clown1.bmp
204.371	4.443	4	1	1.2	Symbols/f.bmp	Symbols/f1.bmp
208.814	4.442	3	1	1.338	Semantic/rich.bmp	Semantic/pointed1.bmp
213.256	4.443	0	1	1.641	Semantic/null.bmp	Semantic/null.bmp
217.699	4.443	5	1	1.054	Symbols/drp.bmp	Symbols/drn1.bmp
222.142	4.443	0	1	2.646	Semantic/null.bmp	Semantic/null.bmp
226.585	4.443	4	0	n/a	Symbols/o.bmp	Symbols/d1.bmp
231.028	4.443	1	1	1.192	Semantic/mitten.bmp	Semantic/glove2.bmp
235.471	4.442	2	1	2.1	Semantic/silent.bmp	Semantic/quiet2.bmp
239.913	4.443	3	1	1.791	Semantic/towel.bmp	Semantic/puppet1.bmp
244.356	4.443	1	1	1.76	Semantic/syrup.bmp	Semantic/pancakes2.bmp
248.799	4.443	0	1	1.756	Semantic/null.bmp	Semantic/null.bmp
253.242	4.443	3	1	3.165	Semantic/upper.bmp	Semantic/broke1.bmp
257.685	4.443	2	1	1.549	Semantic/lobster.bmp	Semantic/crab1.bmp
262.128	4.443	0	1	1.783	Semantic/null.bmp	Semantic/null.bmp
266.571	4.442	0	1	2.305	Semantic/null.bmp	Semantic/null.bmp
271.013	4.443	3	1	1.659	Semantic/ranch.bmp	Semantic/chin1.bmp
275.456	4.443	4	1	1.211	Symbols/k.bmp	Symbols/k1.bmp
279.899	4.443	0	1	1.878	Semantic/null.bmp	Semantic/null.bmp
284.342	4.443	5	1	1.544	Symbols/ntv.bmp	Symbols/ntv2.bmp
288.785	4.443	2	1	1.501	Semantic/razor.bmp	Semantic/blade1.bmp
293.228	4.442	0	1	2.424	Semantic/null.bmp	Semantic/null.bmp
297.67	4.443	1	1	1.354	Semantic/jam.bmp	Semantic/jelly2.bmp
302.113	4.443	2	1	2.697	Semantic/smudge.bmp	Semantic/smear2.bmp
306.556	4.443	0	1	2.674	Semantic/null.bmp	Semantic/null.bmp
310.999	4.443	5	1	1.063	Symbols/gbk.bmp	Symbols/rbk2.bmp
315.442	4.443	4	1	1.191	Symbols/g.bmp	Symbols/p2.bmp
319.885	4.442	0	1	1.394	Semantic/null.bmp	Semantic/null.bmp
324.327	4.443	3	1	1.828	Semantic/clerk.bmp	Semantic/bent2.bmp
328.77	4.443	2	1	1.176	Semantic/finish.bmp	Semantic/end2.bmp
333.213	4.443	0	1	1.886	Semantic/null.bmp	Semantic/null.bmp
337.656	4.443	5	1	0.885	Symbols/zsj.bmp	Symbols/wsj1.bmp
342.099	4.443	0	1	3.159	Semantic/null.bmp	Semantic/null.bmp
346.542	4.443	5	1	1.371	Symbols/lwy.bmp	Symbols/lwy1.bmp
350.985	4.442	5	1	1.204	Symbols/lik.bmp	Symbols/lik1.bmp
355.427	4.443	5	1	1.268	Symbols/one.bmp	Symbols/one2.bmp
359.87	4.443	0	1	1.706	Semantic/null.bmp	Semantic/null.bmp
364.313	4.443	5	1	1.559	Symbols/hvj.bmp	Symbols/hvj1.bmp
368.756	4.443	5	1	1.568	Symbols/rbe.bmp	Symbols/rte1.bmp
373.199	4.443	3	1	1.411	Semantic/map.bmp	Semantic/hut1.bmp
377.642	4.442	3	1	2.019	Semantic/scar.bmp	Semantic/tunnel1.bmp
382.084	4.443	4	0	1.018	Symbols/d.bmp	Symbols/r2.bmp
386.527	4.443	5	0	1.217	Symbols/wug.bmp	Symbols/wyg2.bmp
390.97	4.439	0	1	1.329	Semantic/null.bmp	Semantic/null.bmp
