onset	duration	trial_type	accuracy	response_time	stim1_file	stim2_file
0.0	4.655	4	0	1.364	Tones/450.WAV	Tones/525.WAV
4.655	4.442	2	1	2.013	Semantic/human.WAV	Semantic/person.WAV
9.097	4.443	0	1	0.965	Tones/nullsilence.WAV	Tones/nullsilence.WAV
13.54	4.443	4	0	1.39	Tones/825.WAV	Tones/750.WAV
17.983	4.443	5	1	0.841	Tones/375800525.WAV	Tones/375800525.WAV
22.426	4.443	0	1	1.024	Tones/nullsilence.WAV	Tones/nullsilence.WAV
26.869	4.443	5	1	0.79	Tones/350475625.WAV	Tones/350475625.WAV
31.312	4.443	4	1	1.571	Tones/875.WAV	Tones/875.WAV
35.755	4.442	4	1	1.549	Tones/525.WAV	Tones/525.WAV
40.197	4.443	0	1	0.275	Tones/nullsilence.WAV	Tones/nullsilence.WAV
44.64	4.443	1	1	1.581	Semantic/web.WAV	Semantic/spider.WAV
49.083	4.443	2	1	1.428	Semantic/dig.WAV	Semantic/shovel.WAV
53.526	4.443	0	1	2.098	Tones/nullsilence.WAV	Tones/nullsilence.WAV
57.969	4.443	3	1	1.517	Semantic/trade.WAV	Semantic/square.WAV
62.412	4.442	5	0	n/a	Tones/325575725.WAV	Tones/325500725.WAV
66.854	4.443	1	1	1.554	Semantic/murder.WAV	Semantic/kill.WAV
71.297	4.443	0	0	n/a	Tones/nullsilence.WAV	Tones/nullsilence.WAV
75.74	4.443	1	1	1.045	Semantic/trash.WAV	Semantic/garbage.WAV
80.183	4.443	0	1	1.981	Tones/nullsilence.WAV	Tones/nullsilence.WAV
84.626	4.443	1	1	1.494	Semantic/tall.WAV	Semantic/short.WAV
89.069	4.442	0	1	0.726	Tones/nullsilence.WAV	Tones/nullsilence.WAV
93.511	4.443	2	0	1.76	Semantic/raisin.WAV	Semantic/prune.WAV
97.954	4.443	0	0	n/a	Tones/nullsilence.WAV	Tones/nullsilence.WAV
102.397	4.443	1	1	2.506	Semantic/baggage.WAV	Semantic/luggage.WAV
106.84	4.443	0	0	n/a	Tones/nullsilence.WAV	Tones/nullsilence.WAV
111.283	4.443	2	1	2.567	Semantic/picture.WAV	Semantic/painting.WAV
115.726	4.442	2	1	1.37	Semantic/truth.WAV	Semantic/honest.WAV
120.168	4.443	0	1	1.821	Tones/nullsilence.WAV	Tones/nullsilence.WAV
124.611	4.443	3	0	3.139	Semantic/gently.WAV	Semantic/ceiling.WAV
129.054	4.443	0	1	1.396	Tones/nullsilence.WAV	Tones/nullsilence.WAV
133.497	4.443	4	1	1.884	Tones/425.WAV	Tones/425.WAV
137.94	4.443	0	0	n/a	Tones/nullsilence.WAV	Tones/nullsilence.WAV
142.383	4.443	1	1	2.04	Semantic/buyer.WAV	Semantic/seller.WAV
146.826	4.442	1	1	1.416	Semantic/insect.WAV	Semantic/bug.WAV
151.268	4.443	2	1	1.467	Semantic/cactus.WAV	Semantic/prickly.WAV
155.711	4.443	0	1	2.204	Tones/nullsilence.WAV	Tones/nullsilence.WAV
160.154	4.443	1	1	1.747	Semantic/big.WAV	Semantic/small.WAV
164.597	4.443	0	1	1.799	Tones/nullsilence.WAV	Tones/nullsilence.WAV
169.04	4.443	3	0	2.521	Semantic/stack.WAV	Semantic/chef.WAV
173.483	4.442	0	1	1.852	Tones/nullsilence.WAV	Tones/nullsilence.WAV
177.925	4.443	3	1	2.399	Semantic/headed.WAV	Semantic/thirty.WAV
182.368	4.443	0	0	n/a	Tones/nullsilence.WAV	Tones/nullsilence.WAV
186.811	4.443	1	1	1.901	Semantic/summer.WAV	Semantic/winter.WAV
191.254	4.443	4	1	2.395	Tones/400.WAV	Tones/400.WAV
195.697	4.443	0	1	1.234	Tones/nullsilence.WAV	Tones/nullsilence.WAV
200.14	4.442	1	1	1.452	Semantic/itch.WAV	Semantic/scratch.WAV
204.582	4.443	4	1	1.853	Tones/500.WAV	Tones/500.WAV
209.025	4.443	3	0	1.5	Semantic/turtle.WAV	Semantic/boom.WAV
213.468	4.443	0	0	n/a	Tones/nullsilence.WAV	Tones/nullsilence.WAV
217.911	4.443	5	0	1.668	Tones/425700850.WAV	Tones/425700775.WAV
222.354	4.443	0	1	2.244	Tones/nullsilence.WAV	Tones/nullsilence.WAV
226.797	4.442	4	0	1.507	Tones/725.WAV	Tones/650.WAV
231.239	4.443	1	1	2.233	Semantic/bunny.WAV	Semantic/rabbit.WAV
235.682	4.443	2	1	1.743	Semantic/sneeze.WAV	Semantic/cough.WAV
240.125	4.443	3	1	2.913	Semantic/secret.WAV	Semantic/tone.WAV
244.568	4.443	1	1	1.724	Semantic/fuel.WAV	Semantic/gas.WAV
249.011	4.443	0	1	1.378	Tones/nullsilence.WAV	Tones/nullsilence.WAV
253.454	4.442	3	1	1.52	Semantic/lord.WAV	Semantic/oil.WAV
257.896	4.443	2	1	1.524	Semantic/sly.WAV	Semantic/sneaky.WAV
262.339	4.443	0	0	n/a	Tones/nullsilence.WAV	Tones/nullsilence.WAV
266.782	4.443	0	0	n/a	Tones/nullsilence.WAV	Tones/nullsilence.WAV
271.225	4.443	3	1	1.565	Semantic/pirate.WAV	Semantic/bandage.WAV
275.668	4.443	4	1	2.138	Tones/550.WAV	Tones/550.WAV
280.111	4.443	0	1	1.084	Tones/nullsilence.WAV	Tones/nullsilence.WAV
284.554	4.442	5	1	1.528	Tones/525800450.WAV	Tones/525800450.WAV
288.996	4.443	2	1	2.123	Semantic/call.WAV	Semantic/phone.WAV
293.439	4.443	0	1	3.074	Tones/nullsilence.WAV	Tones/nullsilence.WAV
297.882	4.443	1	1	2.507	Semantic/handbag.WAV	Semantic/purse.WAV
302.325	4.443	2	1	2.845	Semantic/pimple.WAV	Semantic/zit.WAV
306.768	4.443	0	1	2.655	Tones/nullsilence.WAV	Tones/nullsilence.WAV
311.211	4.442	5	0	1.615	Tones/600550400.WAV	Tones/675550400.WAV
315.653	4.443	4	0	1.355	Tones/750.WAV	Tones/675.WAV
320.096	4.443	0	1	0.528	Tones/nullsilence.WAV	Tones/nullsilence.WAV
324.539	4.443	3	0	2.143	Semantic/mansion.WAV	Semantic/super.WAV
328.982	4.443	2	1	3.2	Semantic/skunk.WAV	Semantic/stink.WAV
333.425	4.443	0	1	1.977	Tones/nullsilence.WAV	Tones/nullsilence.WAV
337.868	4.442	5	0	2.014	Tones/450650850.WAV	Tones/375650850.WAV
342.31	4.443	0	1	1.704	Tones/nullsilence.WAV	Tones/nullsilence.WAV
346.753	4.443	5	1	1.57	Tones/750300700.WAV	Tones/750300700.WAV
351.196	4.443	5	1	1.295	Tones/775625825.WAV	Tones/775625825.WAV
355.639	4.443	5	1	2.284	Tones/875675500.WAV	Tones/875675500.WAV
360.082	4.443	0	1	2.672	Tones/nullsilence.WAV	Tones/nullsilence.WAV
364.525	4.442	5	1	1.781	Tones/650350575.WAV	Tones/650350575.WAV
368.967	4.443	5	0	1.665	Tones/700550775.WAV	Tones/700475775.WAV
373.41	4.443	3	0	1.658	Semantic/spell.WAV	Semantic/dim.WAV
377.853	4.443	3	1	1.46	Semantic/bacon.WAV	Semantic/wipe.WAV
382.296	4.443	4	0	1.819	Tones/475.WAV	Tones/550.WAV
386.739	4.443	5	0	1.574	Tones/825600375.WAV	Tones/825675375.WAV
391.182	4.439	0	1	2.644	Tones/nullsilence.WAV	Tones/nullsilence.WAV
