onset	duration	trial_type	accuracy	response_time	stim1_file	stim2_file
0.0	4.442	2	1	0.663	RhymeSpell/crawl.WAV	RhymeSpell/ball.WAV
4.442	4.443	2	1	0.697	RhymeSpell/moan.WAV	RhymeSpell/bone.WAV
8.885	4.443	0	1	1.18	Tones/nullsilence.WAV	Tones/nullsilence.WAV
13.328	4.443	3	1	0.786	RhymeSpell/harm.WAV	RhymeSpell/warm.WAV
17.771	4.443	0	1	0.933	Tones/nullsilence.WAV	Tones/nullsilence.WAV
22.214	4.443	3	0	0.58	RhymeSpell/dull.WAV	RhymeSpell/pull.WAV
26.657	4.443	5	1	0.943	Tones/700.WAV	Tones/700.WAV
31.1	4.442	1	1	0.874	RhymeSpell/dime.WAV	RhymeSpell/lime.WAV
35.542	4.443	0	1	1.257	Tones/nullsilence.WAV	Tones/nullsilence.WAV
39.985	4.443	1	1	1.078	RhymeSpell/thread.WAV	RhymeSpell/dread.WAV
44.428	4.443	4	1	1.488	RhymeSpell/dash.WAV	RhymeSpell/brow.WAV
48.871	4.443	2	1	1.217	RhymeSpell/though.WAV	RhymeSpell/blow.WAV
53.314	4.443	2	1	0.774	RhymeSpell/greet.WAV	RhymeSpell/neat.WAV
57.757	4.442	0	1	1.006	Tones/nullsilence.WAV	Tones/nullsilence.WAV
62.199	4.443	1	1	1.223	RhymeSpell/mad.WAV	RhymeSpell/pad.WAV
66.642	4.443	0	1	1.335	Tones/nullsilence.WAV	Tones/nullsilence.WAV
71.085	4.443	5	1	1.235	Tones/450.WAV	Tones/525.WAV
75.528	4.443	0	1	1.011	Tones/nullsilence.WAV	Tones/nullsilence.WAV
79.971	4.443	3	1	2.022	RhymeSpell/tough.WAV	RhymeSpell/cough.WAV
84.414	4.442	6	1	1.156	Tones/350475625.WAV	Tones/350475625.WAV
88.856	4.443	1	1	1.173	RhymeSpell/drum.WAV	RhymeSpell/gum.WAV
93.299	4.443	0	1	1.027	Tones/nullsilence.WAV	Tones/nullsilence.WAV
97.742	4.443	5	1	0.961	Tones/825.WAV	Tones/750.WAV
102.185	4.443	5	1	1.122	Tones/875.WAV	Tones/875.WAV
106.628	4.443	2	1	1.811	RhymeSpell/comb.WAV	RhymeSpell/chrome.WAV
111.071	4.442	0	1	1.063	Tones/nullsilence.WAV	Tones/nullsilence.WAV
115.513	4.443	3	1	1.131	RhymeSpell/couch.WAV	RhymeSpell/touch.WAV
119.956	4.443	0	1	1.057	Tones/nullsilence.WAV	Tones/nullsilence.WAV
124.399	4.443	6	0	1.506	Tones/325575725.WAV	Tones/325500725.WAV
128.842	4.443	0	1	1.229	Tones/nullsilence.WAV	Tones/nullsilence.WAV
133.285	4.443	3	0	1.6	RhymeSpell/gull.WAV	RhymeSpell/bull.WAV
137.728	4.443	4	1	0.841	RhymeSpell/goes.WAV	RhymeSpell/lap.WAV
142.171	4.442	5	1	1.472	Tones/525.WAV	Tones/525.WAV
146.613	4.443	1	1	1.003	RhymeSpell/pay.WAV	RhymeSpell/play.WAV
151.056	4.443	0	1	1.244	Tones/nullsilence.WAV	Tones/nullsilence.WAV
155.499	4.443	4	1	1.194	RhymeSpell/staff.WAV	RhymeSpell/gain.WAV
159.942	4.443	5	1	1.248	Tones/425.WAV	Tones/425.WAV
164.385	4.443	0	1	1.088	Tones/nullsilence.WAV	Tones/nullsilence.WAV
168.828	4.442	4	1	1.178	RhymeSpell/scale.WAV	RhymeSpell/fly.WAV
173.27	4.443	0	1	1.181	Tones/nullsilence.WAV	Tones/nullsilence.WAV
177.713	4.443	6	1	1.365	Tones/425700850.WAV	Tones/425700775.WAV
182.156	4.443	0	1	1.136	Tones/nullsilence.WAV	Tones/nullsilence.WAV
186.599	4.443	1	1	1.642	RhymeSpell/hint.WAV	RhymeSpell/print.WAV
191.042	4.443	0	1	1.246	Tones/nullsilence.WAV	Tones/nullsilence.WAV
195.485	4.442	6	1	1.209	Tones/525800450.WAV	Tones/525800450.WAV
199.927	4.443	0	1	1.605	Tones/nullsilence.WAV	Tones/nullsilence.WAV
204.37	4.443	5	1	1.251	Tones/400.WAV	Tones/400.WAV
208.813	4.443	0	1	1.159	Tones/nullsilence.WAV	Tones/nullsilence.WAV
213.256	4.443	3	1	1.538	RhymeSpell/foot.WAV	RhymeSpell/hoot.WAV
217.699	4.443	0	1	1.304	Tones/nullsilence.WAV	Tones/nullsilence.WAV
222.142	4.442	3	1	1.215	RhymeSpell/glove.WAV	RhymeSpell/drove.WAV
226.584	4.443	0	1	0.759	Tones/nullsilence.WAV	Tones/nullsilence.WAV
231.027	4.443	2	1	1.838	RhymeSpell/trade.WAV	RhymeSpell/paid.WAV
235.47	4.443	3	1	1.538	RhymeSpell/moth.WAV	RhymeSpell/both.WAV
239.913	4.443	4	1	1.753	RhymeSpell/start.WAV	RhymeSpell/pure.WAV
244.356	4.443	6	1	1.368	Tones/600550400.WAV	Tones/675550400.WAV
248.799	4.442	0	1	0.978	Tones/nullsilence.WAV	Tones/nullsilence.WAV
253.241	4.443	5	1	1.321	Tones/500.WAV	Tones/500.WAV
257.684	4.443	0	1	1.093	Tones/nullsilence.WAV	Tones/nullsilence.WAV
262.127	4.443	6	1	1.096	Tones/450650850.WAV	Tones/375650850.WAV
266.57	4.443	0	1	1.048	Tones/nullsilence.WAV	Tones/nullsilence.WAV
271.013	4.443	1	1	1.135	RhymeSpell/wall.WAV	RhymeSpell/tall.WAV
275.456	4.443	0	1	1.059	Tones/nullsilence.WAV	Tones/nullsilence.WAV
279.899	4.442	2	1	1.22	RhymeSpell/glad.WAV	RhymeSpell/plaid.WAV
284.341	4.443	0	1	1.192	Tones/nullsilence.WAV	Tones/nullsilence.WAV
288.784	4.443	5	1	1.094	Tones/725.WAV	Tones/650.WAV
293.227	4.443	0	1	1.841	Tones/nullsilence.WAV	Tones/nullsilence.WAV
297.67	4.443	4	1	1.312	RhymeSpell/strut.WAV	RhymeSpell/glint.WAV
302.113	4.443	2	1	1.396	RhymeSpell/sheet.WAV	RhymeSpell/heat.WAV
306.556	4.442	6	1	1.314	Tones/750300700.WAV	Tones/750300700.WAV
310.998	4.443	2	1	0.953	RhymeSpell/whom.WAV	RhymeSpell/womb.WAV
315.441	4.443	4	1	1.064	RhymeSpell/spare.WAV	RhymeSpell/cow.WAV
319.884	4.443	0	1	0.994	Tones/nullsilence.WAV	Tones/nullsilence.WAV
324.327	4.443	3	0	2.78	RhymeSpell/fat.WAV	RhymeSpell/swat.WAV
328.77	4.443	4	1	0.891	RhymeSpell/team.WAV	RhymeSpell/brief.WAV
333.213	4.442	0	1	1.036	Tones/nullsilence.WAV	Tones/nullsilence.WAV
337.655	4.443	5	1	1.489	Tones/550.WAV	Tones/550.WAV
342.098	4.443	0	1	1.204	Tones/nullsilence.WAV	Tones/nullsilence.WAV
346.541	4.443	3	1	1.101	RhymeSpell/bad.WAV	RhymeSpell/wad.WAV
350.984	4.443	1	1	1.006	RhymeSpell/glare.WAV	RhymeSpell/share.WAV
355.427	4.443	0	1	1.238	Tones/nullsilence.WAV	Tones/nullsilence.WAV
359.87	4.443	1	1	1.129	RhymeSpell/cold.WAV	RhymeSpell/told.WAV
364.313	4.442	6	1	2.282	Tones/775625825.WAV	Tones/775625825.WAV
368.755	4.443	1	1	1.021	RhymeSpell/dawn.WAV	RhymeSpell/lawn.WAV
373.198	4.443	1	1	0.843	RhymeSpell/broke.WAV	RhymeSpell/joke.WAV
377.641	4.443	4	1	1.273	RhymeSpell/craft.WAV	RhymeSpell/young.WAV
382.084	4.443	0	1	0.937	Tones/nullsilence.WAV	Tones/nullsilence.WAV
386.527	4.443	3	0	1.434	RhymeSpell/hull.WAV	RhymeSpell/full.WAV
390.97	4.442	3	1	1.307	RhymeSpell/freight.WAV	RhymeSpell/height.WAV
395.412	4.443	5	1	1.104	Tones/750.WAV	Tones/675.WAV
399.855	4.443	2	1	1.013	RhymeSpell/stool.WAV	RhymeSpell/ghoul.WAV
404.298	4.443	2	1	1.019	RhymeSpell/hoe.WAV	RhymeSpell/throw.WAV
408.741	4.443	0	1	1.08	Tones/nullsilence.WAV	Tones/nullsilence.WAV
413.184	4.443	6	1	1.719	Tones/875675500.WAV	Tones/875675500.WAV
417.627	4.442	3	1	1.457	RhymeSpell/cost.WAV	RhymeSpell/ghost.WAV
422.069	4.443	0	1	1.131	Tones/nullsilence.WAV	Tones/nullsilence.WAV
426.512	4.443	6	1	0.993	Tones/650350575.WAV	Tones/650350575.WAV
430.955	4.443	2	1	1.135	RhymeSpell/gas.WAV	RhymeSpell/pass.WAV
435.398	4.443	3	1	1.075	RhymeSpell/blood.WAV	RhymeSpell/wood.WAV
439.841	4.443	0	1	1.125	Tones/nullsilence.WAV	Tones/nullsilence.WAV
444.284	4.442	4	1	1.335	RhymeSpell/vend.WAV	RhymeSpell/space.WAV
448.726	4.443	2	1	1.112	RhymeSpell/choose.WAV	RhymeSpell/lose.WAV
453.169	4.443	6	1	0.974	Tones/700550775.WAV	Tones/700475775.WAV
457.612	4.443	0	1	1.142	Tones/nullsilence.WAV	Tones/nullsilence.WAV
462.055	4.443	6	1	1.027	Tones/825600375.WAV	Tones/825675375.WAV
466.498	4.443	5	1	1.111	Tones/475.WAV	Tones/550.WAV
470.941	4.443	0	1	1.356	Tones/nullsilence.WAV	Tones/nullsilence.WAV
475.384	4.438	0	1	1.22	Tones/nullsilence.WAV	Tones/nullsilence.WAV
