onset	duration	trial_type	accuracy	response_time	stim1_file	stim2_file
0.0	4.443	2	1	1.258	RhymeSpell/stroll.WAV	RhymeSpell/bowl.WAV
4.443	4.443	2	1	2.206	RhymeSpell/shed.WAV	RhymeSpell/tread.WAV
8.886	4.443	0	1	0.949	Tones/nullsilence.WAV	Tones/nullsilence.WAV
13.329	4.442	3	1	1.65	RhymeSpell/cove.WAV	RhymeSpell/prove.WAV
17.771	4.443	0	1	0.784	Tones/nullsilence.WAV	Tones/nullsilence.WAV
22.214	4.443	3	0	n/a	RhymeSpell/climb.WAV	RhymeSpell/limb.WAV
26.657	4.443	5	1	1.034	Tones/700.WAV	Tones/700.WAV
31.1	4.443	1	0	2.682	RhymeSpell/class.WAV	RhymeSpell/mass.WAV
35.543	4.443	0	1	1.589	Tones/nullsilence.WAV	Tones/nullsilence.WAV
39.986	4.442	1	1	1.653	RhymeSpell/brain.WAV	RhymeSpell/train.WAV
44.428	4.443	4	1	0.983	RhymeSpell/norm.WAV	RhymeSpell/group.WAV
48.871	4.443	2	1	3.029	RhymeSpell/caught.WAV	RhymeSpell/bought.WAV
53.314	4.443	2	0	1.166	RhymeSpell/putt.WAV	RhymeSpell/cut.WAV
57.757	4.443	0	1	0.654	Tones/nullsilence.WAV	Tones/nullsilence.WAV
62.2	4.443	1	1	2.184	RhymeSpell/nod.WAV	RhymeSpell/rod.WAV
66.643	4.443	0	1	0.558	Tones/nullsilence.WAV	Tones/nullsilence.WAV
71.086	4.442	5	1	1.956	Tones/450.WAV	Tones/525.WAV
75.528	4.443	0	1	0.663	Tones/nullsilence.WAV	Tones/nullsilence.WAV
79.971	4.443	3	1	3.188	RhymeSpell/hatch.WAV	RhymeSpell/watch.WAV
84.414	4.443	6	1	2.002	Tones/350475625.WAV	Tones/350475625.WAV
88.857	4.443	1	1	1.294	RhymeSpell/mark.WAV	RhymeSpell/park.WAV
93.3	4.443	0	1	0.654	Tones/nullsilence.WAV	Tones/nullsilence.WAV
97.743	4.442	5	1	1.001	Tones/825.WAV	Tones/750.WAV
102.185	4.443	5	1	0.988	Tones/875.WAV	Tones/875.WAV
106.628	4.443	2	1	2.178	RhymeSpell/stuff.WAV	RhymeSpell/rough.WAV
111.071	4.443	0	1	0.901	Tones/nullsilence.WAV	Tones/nullsilence.WAV
115.514	4.443	3	1	2.728	RhymeSpell/cheat.WAV	RhymeSpell/sweat.WAV
119.957	4.443	0	1	0.989	Tones/nullsilence.WAV	Tones/nullsilence.WAV
124.4	4.442	6	1	1.555	Tones/325575725.WAV	Tones/325500725.WAV
128.842	4.443	0	1	0.589	Tones/nullsilence.WAV	Tones/nullsilence.WAV
133.285	4.443	3	1	3.153	RhymeSpell/flood.WAV	RhymeSpell/mood.WAV
137.728	4.443	4	1	1.348	RhymeSpell/slap.WAV	RhymeSpell/tool.WAV
142.171	4.443	5	1	1.153	Tones/525.WAV	Tones/525.WAV
146.614	4.443	1	1	2.717	RhymeSpell/paste.WAV	RhymeSpell/taste.WAV
151.057	4.443	0	1	1.856	Tones/nullsilence.WAV	Tones/nullsilence.WAV
155.5	4.442	4	1	1.661	RhymeSpell/walk.WAV	RhymeSpell/reef.WAV
159.942	4.443	5	1	1.061	Tones/425.WAV	Tones/425.WAV
164.385	4.443	0	1	0.559	Tones/nullsilence.WAV	Tones/nullsilence.WAV
168.828	4.443	4	1	1.95	RhymeSpell/trap.WAV	RhymeSpell/treat.WAV
173.271	4.443	0	1	0.867	Tones/nullsilence.WAV	Tones/nullsilence.WAV
177.714	4.443	6	1	1.393	Tones/425700850.WAV	Tones/425700775.WAV
182.157	4.442	0	1	0.673	Tones/nullsilence.WAV	Tones/nullsilence.WAV
186.599	4.443	1	1	1.765	RhymeSpell/sir.WAV	RhymeSpell/stir.WAV
191.042	4.443	0	1	0.826	Tones/nullsilence.WAV	Tones/nullsilence.WAV
195.485	4.443	6	1	1.516	Tones/525800450.WAV	Tones/525800450.WAV
199.928	4.443	0	1	1.246	Tones/nullsilence.WAV	Tones/nullsilence.WAV
204.371	4.443	5	1	1.565	Tones/400.WAV	Tones/400.WAV
208.814	4.442	0	1	0.798	Tones/nullsilence.WAV	Tones/nullsilence.WAV
213.256	4.443	3	1	3.005	RhymeSpell/chase.WAV	RhymeSpell/phrase.WAV
217.699	4.443	0	1	0.947	Tones/nullsilence.WAV	Tones/nullsilence.WAV
222.142	4.443	3	0	1.126	RhymeSpell/fan.WAV	RhymeSpell/swan.WAV
226.585	4.443	0	1	0.653	Tones/nullsilence.WAV	Tones/nullsilence.WAV
231.028	4.443	2	0	1.695	RhymeSpell/cone.WAV	RhymeSpell/blown.WAV
235.471	4.442	3	0	1.138	RhymeSpell/deaf.WAV	RhymeSpell/leaf.WAV
239.913	4.443	4	1	3.194	RhymeSpell/drown.WAV	RhymeSpell/whose.WAV
244.356	4.443	6	1	1.097	Tones/600550400.WAV	Tones/675550400.WAV
248.799	4.443	0	1	0.731	Tones/nullsilence.WAV	Tones/nullsilence.WAV
253.242	4.443	5	1	0.861	Tones/500.WAV	Tones/500.WAV
257.685	4.443	0	1	0.563	Tones/nullsilence.WAV	Tones/nullsilence.WAV
262.128	4.443	6	1	2.842	Tones/450650850.WAV	Tones/375650850.WAV
266.571	4.442	0	1	0.676	Tones/nullsilence.WAV	Tones/nullsilence.WAV
271.013	4.443	1	1	1.732	RhymeSpell/chance.WAV	RhymeSpell/dance.WAV
275.456	4.443	0	1	0.575	Tones/nullsilence.WAV	Tones/nullsilence.WAV
279.899	4.443	2	1	1.832	RhymeSpell/zone.WAV	RhymeSpell/flown.WAV
284.342	4.443	0	1	0.555	Tones/nullsilence.WAV	Tones/nullsilence.WAV
288.785	4.443	5	1	3.041	Tones/725.WAV	Tones/650.WAV
293.228	4.442	0	1	0.491	Tones/nullsilence.WAV	Tones/nullsilence.WAV
297.67	4.443	4	1	1.165	RhymeSpell/pose.WAV	RhymeSpell/brown.WAV
302.113	4.443	2	1	2.357	RhymeSpell/mom.WAV	RhymeSpell/bomb.WAV
306.556	4.443	6	1	1.447	Tones/750300700.WAV	Tones/750300700.WAV
310.999	4.443	2	1	2.046	RhymeSpell/dose.WAV	RhymeSpell/gross.WAV
315.442	4.443	4	0	1.969	RhymeSpell/theme.WAV	RhymeSpell/jail.WAV
319.885	4.442	0	1	0.885	Tones/nullsilence.WAV	Tones/nullsilence.WAV
324.327	4.443	3	0	2.532	RhymeSpell/doll.WAV	RhymeSpell/toll.WAV
328.77	4.443	4	1	1.787	RhymeSpell/thus.WAV	RhymeSpell/stay.WAV
333.213	4.443	0	1	0.186	Tones/nullsilence.WAV	Tones/nullsilence.WAV
337.656	4.443	5	1	1.367	Tones/550.WAV	Tones/550.WAV
342.099	4.443	0	1	0.591	Tones/nullsilence.WAV	Tones/nullsilence.WAV
346.542	4.442	3	0	2.851	RhymeSpell/charm.WAV	RhymeSpell/swarm.WAV
350.984	4.443	1	1	1.951	RhymeSpell/boss.WAV	RhymeSpell/moss.WAV
355.427	4.443	0	1	0.701	Tones/nullsilence.WAV	Tones/nullsilence.WAV
359.87	4.443	1	0	n/a	RhymeSpell/tax.WAV	RhymeSpell/wax.WAV
364.313	4.443	6	1	1.028	Tones/775625825.WAV	Tones/775625825.WAV
368.756	4.443	1	1	1.283	RhymeSpell/moose.WAV	RhymeSpell/goose.WAV
373.199	4.443	1	1	2.287	RhymeSpell/hut.WAV	RhymeSpell/shut.WAV
377.642	4.442	4	1	1.713	RhymeSpell/soup.WAV	RhymeSpell/stood.WAV
382.084	4.443	0	1	1.516	Tones/nullsilence.WAV	Tones/nullsilence.WAV
386.527	4.443	3	1	2.074	RhymeSpell/pint.WAV	RhymeSpell/mint.WAV
390.97	4.443	3	1	2.186	RhymeSpell/frost.WAV	RhymeSpell/post.WAV
395.413	4.443	5	1	1.435	Tones/750.WAV	Tones/675.WAV
399.856	4.443	2	0	n/a	RhymeSpell/cheer.WAV	RhymeSpell/gear.WAV
404.299	4.442	2	1	1.398	RhymeSpell/dare.WAV	RhymeSpell/swear.WAV
408.741	4.443	0	1	0.663	Tones/nullsilence.WAV	Tones/nullsilence.WAV
413.184	4.443	6	1	2.046	Tones/875675500.WAV	Tones/875675500.WAV
417.627	4.443	3	1	1.96	RhymeSpell/card.WAV	RhymeSpell/ward.WAV
422.07	4.443	0	1	0.462	Tones/nullsilence.WAV	Tones/nullsilence.WAV
426.513	4.443	6	1	1.512	Tones/650350575.WAV	Tones/650350575.WAV
430.956	4.442	2	1	1.323	RhymeSpell/seek.WAV	RhymeSpell/beak.WAV
435.398	4.443	3	1	2.137	RhymeSpell/five.WAV	RhymeSpell/give.WAV
439.841	4.443	0	1	0.633	Tones/nullsilence.WAV	Tones/nullsilence.WAV
444.284	4.443	4	1	1.597	RhymeSpell/thigh.WAV	RhymeSpell/duke.WAV
448.727	4.443	2	1	2.56	RhymeSpell/clean.WAV	RhymeSpell/screen.WAV
453.17	4.443	6	1	1.515	Tones/700550775.WAV	Tones/700475775.WAV
457.613	4.442	0	1	0.303	Tones/nullsilence.WAV	Tones/nullsilence.WAV
462.055	4.443	6	1	1.184	Tones/825600375.WAV	Tones/825675375.WAV
466.498	4.443	5	0	1.224	Tones/475.WAV	Tones/550.WAV
470.941	4.443	0	1	0.698	Tones/nullsilence.WAV	Tones/nullsilence.WAV
475.384	4.439	0	1	0.655	Tones/nullsilence.WAV	Tones/nullsilence.WAV
