onset	duration	trial_type	accuracy	response_time	stim1_file	stim2_file
0.0	4.443	3	0	1.869	Semantic/handle.WAV	Semantic/depth.WAV
4.443	4.443	2	1	1.5	Semantic/yarn.WAV	Semantic/knit.WAV
8.886	4.443	3	1	1.325	Semantic/dessert.WAV	Semantic/bony.WAV
13.329	4.443	0	1	0.305	Tones/nullsilence.WAV	Tones/nullsilence.WAV
17.772	4.443	2	1	2.225	Semantic/dish.WAV	Semantic/plate.WAV
22.215	4.442	4	1	0.869	Tones/675.WAV	Tones/600.WAV
26.657	4.443	0	1	1.305	Tones/nullsilence.WAV	Tones/nullsilence.WAV
31.1	4.443	4	1	0.819	Tones/600.WAV	Tones/600.WAV
35.543	4.443	4	1	1.074	Tones/325.WAV	Tones/325.WAV
39.986	4.443	4	1	0.957	Tones/350.WAV	Tones/425.WAV
44.429	4.443	0	1	1.213	Tones/nullsilence.WAV	Tones/nullsilence.WAV
48.872	4.442	4	1	1.665	Tones/850.WAV	Tones/850.WAV
53.314	4.443	0	1	1.009	Tones/nullsilence.WAV	Tones/nullsilence.WAV
57.757	4.443	3	1	1.164	Semantic/flush.WAV	Semantic/cliff.WAV
62.2	4.443	0	1	0.922	Tones/nullsilence.WAV	Tones/nullsilence.WAV
66.643	4.443	1	1	0.981	Semantic/ape.WAV	Semantic/monkey.WAV
71.086	4.443	1	1	2.056	Semantic/spoon.WAV	Semantic/fork.WAV
75.529	4.442	0	1	1.121	Tones/nullsilence.WAV	Tones/nullsilence.WAV
79.971	4.443	1	1	0.874	Semantic/awake.WAV	Semantic/asleep.WAV
84.414	4.443	0	1	1.13	Tones/nullsilence.WAV	Tones/nullsilence.WAV
88.857	4.443	2	1	0.602	Semantic/senate.WAV	Semantic/congress.WAV
93.3	4.443	0	1	0.677	Tones/nullsilence.WAV	Tones/nullsilence.WAV
97.743	4.443	3	1	1.444	Semantic/steam.WAV	Semantic/gap.WAV
102.186	4.443	0	1	1.536	Tones/nullsilence.WAV	Tones/nullsilence.WAV
106.629	4.442	2	1	0.953	Semantic/checkers.WAV	Semantic/chess.WAV
111.071	4.443	5	1	1.036	Tones/425600750.WAV	Tones/425600750.WAV
115.514	4.443	0	1	2.106	Tones/nullsilence.WAV	Tones/nullsilence.WAV
119.957	4.443	1	1	1.15	Semantic/rodent.WAV	Semantic/rat.WAV
124.4	4.443	2	1	0.768	Semantic/robber.WAV	Semantic/thief.WAV
128.843	4.443	3	1	1.07	Semantic/bone.WAV	Semantic/mountain.WAV
133.286	4.442	4	0	2.525	Tones/775.WAV	Tones/700.WAV
137.728	4.443	2	0	2.133	Semantic/purse.WAV	Semantic/wallet.WAV
142.171	4.443	0	1	1.549	Tones/nullsilence.WAV	Tones/nullsilence.WAV
146.614	4.443	2	1	1.659	Semantic/sunny.WAV	Semantic/cloudy.WAV
151.057	4.443	2	0	1.135	Semantic/hide.WAV	Semantic/seek.WAV
155.5	4.443	0	1	1.288	Tones/nullsilence.WAV	Tones/nullsilence.WAV
159.943	4.442	1	1	0.713	Semantic/mom.WAV	Semantic/dad.WAV
164.385	4.443	4	1	1.0	Tones/625.WAV	Tones/625.WAV
168.828	4.443	3	0	2.189	Semantic/joke.WAV	Semantic/chart.WAV
173.271	4.443	3	1	2.766	Semantic/heavy.WAV	Semantic/wish.WAV
177.714	4.443	3	1	1.684	Semantic/plug.WAV	Semantic/belly.WAV
182.157	4.443	0	1	0.987	Tones/nullsilence.WAV	Tones/nullsilence.WAV
186.6	4.443	3	1	2.142	Semantic/steer.WAV	Semantic/toss.WAV
191.043	4.442	2	1	0.721	Semantic/minus.WAV	Semantic/subtract.WAV
195.485	4.443	0	1	0.1	Tones/nullsilence.WAV	Tones/nullsilence.WAV
199.928	4.443	4	1	1.31	Tones/800.WAV	Tones/800.WAV
204.371	4.443	2	1	1.894	Semantic/fingers.WAV	Semantic/hands.WAV
208.814	4.443	4	1	1.148	Tones/375.WAV	Tones/450.WAV
213.257	4.443	0	0	n/a	Tones/nullsilence.WAV	Tones/nullsilence.WAV
217.7	4.442	5	1	1.535	Tones/550800525.WAV	Tones/550800600.WAV
222.142	4.443	0	1	1.302	Tones/nullsilence.WAV	Tones/nullsilence.WAV
226.585	4.443	4	0	1.218	Tones/650.WAV	Tones/575.WAV
231.028	4.443	0	1	3.046	Tones/nullsilence.WAV	Tones/nullsilence.WAV
235.471	4.443	3	0	2.69	Semantic/forgave.WAV	Semantic/maiden.WAV
239.914	4.443	0	1	2.473	Tones/nullsilence.WAV	Tones/nullsilence.WAV
244.357	4.442	1	1	1.748	Semantic/supper.WAV	Semantic/dinner.WAV
248.799	4.443	0	1	3.063	Tones/nullsilence.WAV	Tones/nullsilence.WAV
253.242	4.443	3	0	1.689	Semantic/flow.WAV	Semantic/teaching.WAV
257.685	4.443	3	0	2.119	Semantic/spongy.WAV	Semantic/madam.WAV
262.128	4.443	0	1	1.949	Tones/nullsilence.WAV	Tones/nullsilence.WAV
266.571	4.443	5	0	1.748	Tones/350825400.WAV	Tones/425825400.WAV
271.014	4.443	5	1	1.679	Tones/650475300.WAV	Tones/650475300.WAV
275.457	4.442	1	0	1.53	Semantic/hammer.WAV	Semantic/nail.WAV
279.899	4.443	2	1	1.986	Semantic/earth.WAV	Semantic/ground.WAV
284.342	4.443	5	0	2.549	Tones/425675500.WAV	Tones/425750500.WAV
288.785	4.443	0	1	1.482	Tones/nullsilence.WAV	Tones/nullsilence.WAV
293.228	4.443	4	1	1.189	Tones/300.WAV	Tones/375.WAV
297.671	4.443	0	1	0.787	Tones/nullsilence.WAV	Tones/nullsilence.WAV
302.114	4.442	2	1	2.658	Semantic/teach.WAV	Semantic/learn.WAV
306.556	4.443	0	1	1.264	Tones/nullsilence.WAV	Tones/nullsilence.WAV
310.999	4.443	1	1	0.864	Semantic/ship.WAV	Semantic/boat.WAV
315.442	4.443	0	1	1.242	Tones/nullsilence.WAV	Tones/nullsilence.WAV
319.885	4.443	1	1	0.829	Semantic/life.WAV	Semantic/death.WAV
324.328	4.443	0	1	1.023	Tones/nullsilence.WAV	Tones/nullsilence.WAV
328.771	4.442	2	0	1.759	Semantic/choir.WAV	Semantic/chorus.WAV
333.213	4.443	4	1	1.195	Tones/575.WAV	Tones/650.WAV
337.656	4.443	0	0	n/a	Tones/nullsilence.WAV	Tones/nullsilence.WAV
342.099	4.443	3	1	0.845	Semantic/note.WAV	Semantic/press.WAV
346.542	4.443	5	1	1.544	Tones/875575325.WAV	Tones/875575400.WAV
350.985	4.443	5	0	1.204	Tones/725400775.WAV	Tones/650400775.WAV
355.428	4.443	1	1	1.889	Semantic/jigsaw.WAV	Semantic/puzzle.WAV
359.871	4.442	0	1	1.467	Tones/nullsilence.WAV	Tones/nullsilence.WAV
364.313	4.443	1	1	1.919	Semantic/film.WAV	Semantic/movie.WAV
368.756	4.443	0	1	1.807	Tones/nullsilence.WAV	Tones/nullsilence.WAV
373.199	4.443	4	1	1.31	Tones/700.WAV	Tones/700.WAV
377.642	4.443	5	1	0.728	Tones/325500725.WAV	Tones/325500725.WAV
382.085	4.443	5	1	1.634	Tones/625450850.WAV	Tones/625450775.WAV
386.528	4.442	0	1	2.599	Tones/nullsilence.WAV	Tones/nullsilence.WAV
390.97	4.443	5	1	1.027	Tones/875675300.WAV	Tones/875675300.WAV
395.413	4.443	5	1	1.222	Tones/375750475.WAV	Tones/375750475.WAV
399.856	4.439	0	0	n/a	Tones/nullsilence.WAV	Tones/nullsilence.WAV
