onset	duration	trial_type	accuracy	response_time	stim1_file	stim2_file
0.0	4.443	3	1	1.715	Semantic/handle.WAV	Semantic/depth.WAV
4.443	4.443	2	1	0.967	Semantic/yarn.WAV	Semantic/knit.WAV
8.886	4.443	3	1	1.077	Semantic/dessert.WAV	Semantic/bony.WAV
13.329	4.443	0	1	1.472	Tones/nullsilence.WAV	Tones/nullsilence.WAV
17.772	4.442	2	1	1.134	Semantic/dish.WAV	Semantic/plate.WAV
22.214	4.443	4	1	1.057	Tones/675.WAV	Tones/600.WAV
26.657	4.443	0	1	0.639	Tones/nullsilence.WAV	Tones/nullsilence.WAV
31.1	4.443	4	1	1.065	Tones/600.WAV	Tones/600.WAV
35.543	4.443	4	1	0.866	Tones/325.WAV	Tones/325.WAV
39.986	4.443	4	1	0.853	Tones/350.WAV	Tones/425.WAV
44.429	4.442	0	1	0.61	Tones/nullsilence.WAV	Tones/nullsilence.WAV
48.871	4.443	4	1	0.949	Tones/850.WAV	Tones/850.WAV
53.314	4.443	0	1	0.528	Tones/nullsilence.WAV	Tones/nullsilence.WAV
57.757	4.443	3	1	1.491	Semantic/flush.WAV	Semantic/cliff.WAV
62.2	4.443	0	1	0.714	Tones/nullsilence.WAV	Tones/nullsilence.WAV
66.643	4.443	1	1	1.26	Semantic/ape.WAV	Semantic/monkey.WAV
71.086	4.442	1	1	0.848	Semantic/spoon.WAV	Semantic/fork.WAV
75.528	4.443	0	1	0.868	Tones/nullsilence.WAV	Tones/nullsilence.WAV
79.971	4.443	1	1	1.11	Semantic/awake.WAV	Semantic/asleep.WAV
84.414	4.443	0	1	0.459	Tones/nullsilence.WAV	Tones/nullsilence.WAV
88.857	4.443	2	1	1.259	Semantic/senate.WAV	Semantic/congress.WAV
93.3	4.443	0	1	0.747	Tones/nullsilence.WAV	Tones/nullsilence.WAV
97.743	4.443	3	1	1.299	Semantic/steam.WAV	Semantic/gap.WAV
102.186	4.442	0	1	0.949	Tones/nullsilence.WAV	Tones/nullsilence.WAV
106.628	4.443	2	1	0.971	Semantic/checkers.WAV	Semantic/chess.WAV
111.071	4.443	5	1	0.997	Tones/425600750.WAV	Tones/425600750.WAV
115.514	4.443	0	1	0.923	Tones/nullsilence.WAV	Tones/nullsilence.WAV
119.957	4.443	1	1	1.052	Semantic/rodent.WAV	Semantic/rat.WAV
124.4	4.443	2	1	1.086	Semantic/robber.WAV	Semantic/thief.WAV
128.843	4.442	3	1	1.326	Semantic/bone.WAV	Semantic/mountain.WAV
133.285	4.443	4	1	0.98	Tones/775.WAV	Tones/700.WAV
137.728	4.443	2	1	1.108	Semantic/purse.WAV	Semantic/wallet.WAV
142.171	4.443	0	1	0.679	Tones/nullsilence.WAV	Tones/nullsilence.WAV
146.614	4.443	2	1	1.429	Semantic/sunny.WAV	Semantic/cloudy.WAV
151.057	4.443	2	1	1.425	Semantic/hide.WAV	Semantic/seek.WAV
155.5	4.442	0	1	0.998	Tones/nullsilence.WAV	Tones/nullsilence.WAV
159.942	4.443	1	1	0.851	Semantic/mom.WAV	Semantic/dad.WAV
164.385	4.443	4	1	1.197	Tones/625.WAV	Tones/625.WAV
168.828	4.443	3	1	1.35	Semantic/joke.WAV	Semantic/chart.WAV
173.271	4.443	3	1	1.268	Semantic/heavy.WAV	Semantic/wish.WAV
177.714	4.443	3	1	1.411	Semantic/plug.WAV	Semantic/belly.WAV
182.157	4.442	0	1	1.616	Tones/nullsilence.WAV	Tones/nullsilence.WAV
186.599	4.444	3	1	1.869	Semantic/steer.WAV	Semantic/toss.WAV
191.043	4.442	2	1	1.095	Semantic/minus.WAV	Semantic/subtract.WAV
195.485	4.443	0	1	0.309	Tones/nullsilence.WAV	Tones/nullsilence.WAV
199.928	4.443	4	1	0.905	Tones/800.WAV	Tones/800.WAV
204.371	4.443	2	1	1.026	Semantic/fingers.WAV	Semantic/hands.WAV
208.814	4.443	4	1	1.029	Tones/375.WAV	Tones/450.WAV
213.257	4.442	0	1	1.166	Tones/nullsilence.WAV	Tones/nullsilence.WAV
217.699	4.443	5	1	1.216	Tones/550800525.WAV	Tones/550800600.WAV
222.142	4.443	0	1	0.653	Tones/nullsilence.WAV	Tones/nullsilence.WAV
226.585	4.443	4	1	0.991	Tones/650.WAV	Tones/575.WAV
231.028	4.443	0	1	0.815	Tones/nullsilence.WAV	Tones/nullsilence.WAV
235.471	4.443	3	1	1.677	Semantic/forgave.WAV	Semantic/maiden.WAV
239.914	4.442	0	1	1.659	Tones/nullsilence.WAV	Tones/nullsilence.WAV
244.356	4.443	1	1	0.792	Semantic/supper.WAV	Semantic/dinner.WAV
248.799	4.443	0	1	0.794	Tones/nullsilence.WAV	Tones/nullsilence.WAV
253.242	4.443	3	1	2.096	Semantic/flow.WAV	Semantic/teaching.WAV
257.685	4.443	3	1	1.811	Semantic/spongy.WAV	Semantic/madam.WAV
262.128	4.443	0	1	1.672	Tones/nullsilence.WAV	Tones/nullsilence.WAV
266.571	4.442	5	1	1.419	Tones/350825400.WAV	Tones/425825400.WAV
271.013	4.443	5	1	0.946	Tones/650475300.WAV	Tones/650475300.WAV
275.456	4.443	1	1	1.028	Semantic/hammer.WAV	Semantic/nail.WAV
279.899	4.443	2	0	2.137	Semantic/earth.WAV	Semantic/ground.WAV
284.342	4.443	5	1	1.887	Tones/425675500.WAV	Tones/425750500.WAV
288.785	4.443	0	1	1.256	Tones/nullsilence.WAV	Tones/nullsilence.WAV
293.228	4.442	4	1	1.901	Tones/300.WAV	Tones/375.WAV
297.67	4.443	0	1	0.429	Tones/nullsilence.WAV	Tones/nullsilence.WAV
302.113	4.443	2	1	0.89	Semantic/teach.WAV	Semantic/learn.WAV
306.556	4.443	0	1	0.512	Tones/nullsilence.WAV	Tones/nullsilence.WAV
310.999	4.443	1	1	2.023	Semantic/ship.WAV	Semantic/boat.WAV
315.442	4.443	0	1	0.738	Tones/nullsilence.WAV	Tones/nullsilence.WAV
319.885	4.443	1	1	0.938	Semantic/life.WAV	Semantic/death.WAV
324.328	4.442	0	1	0.48	Tones/nullsilence.WAV	Tones/nullsilence.WAV
328.77	4.443	2	1	0.963	Semantic/choir.WAV	Semantic/chorus.WAV
333.213	4.443	4	1	1.056	Tones/575.WAV	Tones/650.WAV
337.656	4.443	0	1	0.66	Tones/nullsilence.WAV	Tones/nullsilence.WAV
342.099	4.443	3	1	1.72	Semantic/note.WAV	Semantic/press.WAV
346.542	4.443	5	1	1.283	Tones/875575325.WAV	Tones/875575400.WAV
350.985	4.442	5	1	1.084	Tones/725400775.WAV	Tones/650400775.WAV
355.427	4.443	1	1	1.506	Semantic/jigsaw.WAV	Semantic/puzzle.WAV
359.87	4.443	0	1	1.179	Tones/nullsilence.WAV	Tones/nullsilence.WAV
364.313	4.443	1	1	0.984	Semantic/film.WAV	Semantic/movie.WAV
368.756	4.443	0	1	1.134	Tones/nullsilence.WAV	Tones/nullsilence.WAV
373.199	4.443	4	1	0.923	Tones/700.WAV	Tones/700.WAV
377.642	4.442	5	1	0.95	Tones/325500725.WAV	Tones/325500725.WAV
382.084	4.443	5	1	1.202	Tones/625450850.WAV	Tones/625450775.WAV
386.527	4.443	0	1	1.268	Tones/nullsilence.WAV	Tones/nullsilence.WAV
390.97	4.443	5	1	1.107	Tones/875675300.WAV	Tones/875675300.WAV
395.413	4.443	5	1	1.094	Tones/375750475.WAV	Tones/375750475.WAV
399.856	4.439	0	1	0.815	Tones/nullsilence.WAV	Tones/nullsilence.WAV
