onset	duration	trial_type	accuracy	response_time	stim1_file	stim2_file
0.0	4.442	3	0	1.957	RhymeSpell/took.WAV	RhymeSpell/spook.WAV
4.442	4.443	2	0	1.79	RhymeSpell/quo.WAV	RhymeSpell/glow.WAV
8.885	4.443	5	1	1.052	Tones/675.WAV	Tones/600.WAV
13.328	4.443	0	1	1.107	Tones/nullsilence.WAV	Tones/nullsilence.WAV
17.771	4.443	3	1	1.846	RhymeSpell/seat.WAV	RhymeSpell/threat.WAV
22.214	4.443	0	1	1.142	Tones/nullsilence.WAV	Tones/nullsilence.WAV
26.657	4.442	5	1	0.99	Tones/600.WAV	Tones/600.WAV
31.099	4.443	5	1	0.939	Tones/325.WAV	Tones/325.WAV
35.542	4.443	1	1	1.694	RhymeSpell/car.WAV	RhymeSpell/star.WAV
39.985	4.443	0	1	1.19	Tones/nullsilence.WAV	Tones/nullsilence.WAV
44.428	4.443	3	1	1.47	RhymeSpell/flash.WAV	RhymeSpell/wash.WAV
48.871	4.443	6	1	1.034	Tones/425600750.WAV	Tones/425600750.WAV
53.314	4.442	0	1	1.156	Tones/nullsilence.WAV	Tones/nullsilence.WAV
57.756	4.443	0	1	1.094	Tones/nullsilence.WAV	Tones/nullsilence.WAV
62.199	4.443	4	0	2.38	RhymeSpell/name.WAV	RhymeSpell/knee.WAV
66.642	4.443	4	0	3.008	RhymeSpell/cap.WAV	RhymeSpell/north.WAV
71.085	4.443	0	1	1.322	Tones/nullsilence.WAV	Tones/nullsilence.WAV
75.528	4.443	6	1	1.565	Tones/550800525.WAV	Tones/550800600.WAV
79.971	4.442	6	0	1.168	Tones/350825400.WAV	Tones/425825400.WAV
84.413	4.443	0	1	1.102	Tones/nullsilence.WAV	Tones/nullsilence.WAV
88.856	4.443	1	1	1.286	RhymeSpell/page.WAV	RhymeSpell/stage.WAV
93.299	4.443	2	0	1.107	RhymeSpell/woe.WAV	RhymeSpell/show.WAV
97.742	4.443	0	1	1.376	Tones/nullsilence.WAV	Tones/nullsilence.WAV
102.185	4.443	4	1	1.255	RhymeSpell/scheme.WAV	RhymeSpell/saint.WAV
106.628	4.442	2	1	2.682	RhymeSpell/foe.WAV	RhymeSpell/stow.WAV
111.07	4.443	0	1	1.169	Tones/nullsilence.WAV	Tones/nullsilence.WAV
115.513	4.443	6	1	1.186	Tones/650475300.WAV	Tones/650475300.WAV
119.956	4.443	6	1	1.528	Tones/425675500.WAV	Tones/425750500.WAV
124.399	4.443	0	1	1.234	Tones/nullsilence.WAV	Tones/nullsilence.WAV
128.842	4.443	5	1	0.937	Tones/350.WAV	Tones/425.WAV
133.285	4.443	0	1	0.769	Tones/nullsilence.WAV	Tones/nullsilence.WAV
137.728	4.442	2	1	1.455	RhymeSpell/weird.WAV	RhymeSpell/beard.WAV
142.17	4.443	1	1	1.486	RhymeSpell/cage.WAV	RhymeSpell/rage.WAV
146.613	4.443	3	0	2.769	RhymeSpell/grand.WAV	RhymeSpell/wand.WAV
151.056	4.443	6	1	1.173	Tones/875575325.WAV	Tones/875575400.WAV
155.499	4.443	3	1	1.737	RhymeSpell/breast.WAV	RhymeSpell/feast.WAV
159.942	4.443	0	1	0.706	Tones/nullsilence.WAV	Tones/nullsilence.WAV
164.385	4.442	5	1	1.139	Tones/850.WAV	Tones/850.WAV
168.827	4.443	0	1	1.269	Tones/nullsilence.WAV	Tones/nullsilence.WAV
173.27	4.443	6	0	1.505	Tones/725400775.WAV	Tones/650400775.WAV
177.713	4.443	2	1	1.86	RhymeSpell/plea.WAV	RhymeSpell/key.WAV
182.156	4.443	4	1	1.063	RhymeSpell/boom.WAV	RhymeSpell/past.WAV
186.599	4.443	5	1	1.298	Tones/775.WAV	Tones/700.WAV
191.042	4.442	0	1	1.207	Tones/nullsilence.WAV	Tones/nullsilence.WAV
195.484	4.443	0	1	1.232	Tones/nullsilence.WAV	Tones/nullsilence.WAV
199.927	4.443	4	1	2.066	RhymeSpell/brass.WAV	RhymeSpell/gut.WAV
204.37	4.443	0	0	n/a	Tones/nullsilence.WAV	Tones/nullsilence.WAV
208.813	4.443	4	1	1.279	RhymeSpell/nail.WAV	RhymeSpell/weep.WAV
213.256	4.443	0	1	1.095	Tones/nullsilence.WAV	Tones/nullsilence.WAV
217.699	4.442	3	1	2.14	RhymeSpell/christ.WAV	RhymeSpell/twist.WAV
222.141	4.443	5	1	1.46	Tones/625.WAV	Tones/625.WAV
226.584	4.443	2	1	2.128	RhymeSpell/froze.WAV	RhymeSpell/nose.WAV
231.027	4.443	0	1	1.217	Tones/nullsilence.WAV	Tones/nullsilence.WAV
235.47	4.443	1	1	2.963	RhymeSpell/cork.WAV	RhymeSpell/stork.WAV
239.913	4.443	0	1	1.247	Tones/nullsilence.WAV	Tones/nullsilence.WAV
244.356	4.442	4	1	1.242	RhymeSpell/food.WAV	RhymeSpell/brought.WAV
248.798	4.443	3	1	2.2	RhymeSpell/gone.WAV	RhymeSpell/phone.WAV
253.241	4.443	0	1	1.177	Tones/nullsilence.WAV	Tones/nullsilence.WAV
257.684	4.443	0	1	1.181	Tones/nullsilence.WAV	Tones/nullsilence.WAV
262.127	4.443	4	0	1.773	RhymeSpell/jet.WAV	RhymeSpell/pace.WAV
266.57	4.443	0	1	1.748	Tones/nullsilence.WAV	Tones/nullsilence.WAV
271.013	4.443	1	1	1.968	RhymeSpell/grow.WAV	RhymeSpell/snow.WAV
275.456	4.442	1	1	1.643	RhymeSpell/fluff.WAV	RhymeSpell/puff.WAV
279.898	4.443	6	1	2.054	Tones/325500725.WAV	Tones/325500725.WAV
284.341	4.443	6	1	1.235	Tones/625450850.WAV	Tones/625450775.WAV
288.784	4.443	0	1	1.203	Tones/nullsilence.WAV	Tones/nullsilence.WAV
293.227	4.443	4	1	2.1	RhymeSpell/calm.WAV	RhymeSpell/fame.WAV
297.67	4.443	0	1	1.162	Tones/nullsilence.WAV	Tones/nullsilence.WAV
302.113	4.442	2	0	1.283	RhymeSpell/grade.WAV	RhymeSpell/laid.WAV
306.555	4.443	0	1	1.173	Tones/nullsilence.WAV	Tones/nullsilence.WAV
310.998	4.443	1	1	2.936	RhymeSpell/care.WAV	RhymeSpell/rare.WAV
315.441	4.443	4	1	1.748	RhymeSpell/fall.WAV	RhymeSpell/tint.WAV
319.884	4.443	1	0	2.272	RhymeSpell/note.WAV	RhymeSpell/wrote.WAV
324.327	4.443	5	1	1.662	Tones/800.WAV	Tones/800.WAV
328.77	4.442	5	1	1.354	Tones/375.WAV	Tones/450.WAV
333.212	4.443	0	1	0.621	Tones/nullsilence.WAV	Tones/nullsilence.WAV
337.655	4.443	4	1	1.253	RhymeSpell/splash.WAV	RhymeSpell/braid.WAV
342.098	4.443	0	1	1.258	Tones/nullsilence.WAV	Tones/nullsilence.WAV
346.541	4.443	1	1	2.62	RhymeSpell/spruce.WAV	RhymeSpell/truce.WAV
350.984	4.443	1	1	1.959	RhymeSpell/shell.WAV	RhymeSpell/tell.WAV
355.427	4.442	1	1	1.872	RhymeSpell/fist.WAV	RhymeSpell/gist.WAV
359.869	4.443	6	1	1.241	Tones/875675300.WAV	Tones/875675300.WAV
364.312	4.443	3	0	1.645	RhymeSpell/phase.WAV	RhymeSpell/case.WAV
368.755	4.443	2	1	2.509	RhymeSpell/run.WAV	RhymeSpell/ton.WAV
373.198	4.443	0	1	1.223	Tones/nullsilence.WAV	Tones/nullsilence.WAV
377.641	4.443	5	1	1.271	Tones/650.WAV	Tones/575.WAV
382.084	4.443	3	0	1.338	RhymeSpell/scarce.WAV	RhymeSpell/farce.WAV
386.527	4.442	4	1	1.725	RhymeSpell/half.WAV	RhymeSpell/bake.WAV
390.969	4.443	1	1	1.56	RhymeSpell/cart.WAV	RhymeSpell/smart.WAV
395.412	4.443	0	1	1.227	Tones/nullsilence.WAV	Tones/nullsilence.WAV
399.855	4.443	6	1	0.884	Tones/375750475.WAV	Tones/375750475.WAV
404.298	4.443	0	1	1.315	Tones/nullsilence.WAV	Tones/nullsilence.WAV
408.741	4.443	0	1	1.169	Tones/nullsilence.WAV	Tones/nullsilence.WAV
413.184	4.442	2	1	1.599	RhymeSpell/hood.WAV	RhymeSpell/should.WAV
417.626	4.443	0	1	1.179	Tones/nullsilence.WAV	Tones/nullsilence.WAV
422.069	4.443	6	1	0.913	Tones/375800525.WAV	Tones/375800525.WAV
426.512	4.443	2	0	2.093	RhymeSpell/fruit.WAV	RhymeSpell/loot.WAV
430.955	4.443	0	1	1.568	Tones/nullsilence.WAV	Tones/nullsilence.WAV
435.398	4.443	4	1	2.069	RhymeSpell/palm.WAV	RhymeSpell/salt.WAV
439.841	4.442	3	0	1.47	RhymeSpell/shall.WAV	RhymeSpell/call.WAV
444.283	4.443	0	1	1.864	Tones/nullsilence.WAV	Tones/nullsilence.WAV
448.726	4.443	1	1	2.263	RhymeSpell/clear.WAV	RhymeSpell/fear.WAV
453.169	4.443	2	0	3.221	RhymeSpell/view.WAV	RhymeSpell/few.WAV
457.612	4.443	5	1	1.368	Tones/300.WAV	Tones/375.WAV
462.055	4.443	0	1	1.138	Tones/nullsilence.WAV	Tones/nullsilence.WAV
466.498	4.442	5	1	2.136	Tones/575.WAV	Tones/650.WAV
470.94	4.443	0	1	1.185	Tones/nullsilence.WAV	Tones/nullsilence.WAV
475.383	4.439	4	0	2.204	RhymeSpell/crease.WAV	RhymeSpell/shave.WAV
