onset	duration	trial_type	accuracy	response_time	stim1_file	stim2_file
0.0	4.443	2	1	1.38	RhymeSpell/crawl.WAV	RhymeSpell/ball.WAV
4.443	4.442	2	0	1.129	RhymeSpell/moan.WAV	RhymeSpell/bone.WAV
8.885	4.443	0	1	1.534	Tones/nullsilence.WAV	Tones/nullsilence.WAV
13.328	4.443	3	1	1.471	RhymeSpell/harm.WAV	RhymeSpell/warm.WAV
17.771	4.443	0	1	2.031	Tones/nullsilence.WAV	Tones/nullsilence.WAV
22.214	4.443	3	1	1.233	RhymeSpell/dull.WAV	RhymeSpell/pull.WAV
26.657	4.443	5	1	1.82	Tones/700.WAV	Tones/700.WAV
31.1	4.442	1	0	1.326	RhymeSpell/dime.WAV	RhymeSpell/lime.WAV
35.542	4.443	0	1	1.595	Tones/nullsilence.WAV	Tones/nullsilence.WAV
39.985	4.443	1	1	1.077	RhymeSpell/thread.WAV	RhymeSpell/dread.WAV
44.428	4.443	4	1	1.589	RhymeSpell/dash.WAV	RhymeSpell/brow.WAV
48.871	4.443	2	0	1.636	RhymeSpell/though.WAV	RhymeSpell/blow.WAV
53.314	4.443	2	0	1.117	RhymeSpell/greet.WAV	RhymeSpell/neat.WAV
57.757	4.443	0	1	1.358	Tones/nullsilence.WAV	Tones/nullsilence.WAV
62.2	4.442	1	0	1.202	RhymeSpell/mad.WAV	RhymeSpell/pad.WAV
66.642	4.443	0	1	2.166	Tones/nullsilence.WAV	Tones/nullsilence.WAV
71.085	4.443	5	1	1.952	Tones/450.WAV	Tones/525.WAV
75.528	4.443	0	1	1.901	Tones/nullsilence.WAV	Tones/nullsilence.WAV
79.971	4.443	3	0	n/a	RhymeSpell/tough.WAV	RhymeSpell/cough.WAV
84.414	4.443	6	1	1.442	Tones/350475625.WAV	Tones/350475625.WAV
88.857	4.442	1	0	1.332	RhymeSpell/drum.WAV	RhymeSpell/gum.WAV
93.299	4.443	0	1	2.871	Tones/nullsilence.WAV	Tones/nullsilence.WAV
97.742	4.443	5	1	1.69	Tones/825.WAV	Tones/750.WAV
102.185	4.443	5	1	1.407	Tones/875.WAV	Tones/875.WAV
106.628	4.443	2	1	1.645	RhymeSpell/comb.WAV	RhymeSpell/chrome.WAV
111.071	4.443	0	1	1.422	Tones/nullsilence.WAV	Tones/nullsilence.WAV
115.514	4.442	3	1	1.972	RhymeSpell/couch.WAV	RhymeSpell/touch.WAV
119.956	4.443	0	1	2.003	Tones/nullsilence.WAV	Tones/nullsilence.WAV
124.399	4.443	6	1	1.597	Tones/325575725.WAV	Tones/325500725.WAV
128.842	4.443	0	1	1.9	Tones/nullsilence.WAV	Tones/nullsilence.WAV
133.285	4.443	3	1	1.597	RhymeSpell/gull.WAV	RhymeSpell/bull.WAV
137.728	4.443	4	1	1.538	RhymeSpell/goes.WAV	RhymeSpell/lap.WAV
142.171	4.443	5	1	1.169	Tones/525.WAV	Tones/525.WAV
146.614	4.442	1	1	2.046	RhymeSpell/pay.WAV	RhymeSpell/play.WAV
151.056	4.443	0	1	1.239	Tones/nullsilence.WAV	Tones/nullsilence.WAV
155.499	4.443	4	1	1.092	RhymeSpell/staff.WAV	RhymeSpell/gain.WAV
159.942	4.443	5	1	1.483	Tones/425.WAV	Tones/425.WAV
164.385	4.443	0	1	2.634	Tones/nullsilence.WAV	Tones/nullsilence.WAV
168.828	4.443	4	1	2.135	RhymeSpell/scale.WAV	RhymeSpell/fly.WAV
173.271	4.442	0	1	1.654	Tones/nullsilence.WAV	Tones/nullsilence.WAV
177.713	4.443	6	1	1.408	Tones/425700850.WAV	Tones/425700775.WAV
182.156	4.443	0	1	1.617	Tones/nullsilence.WAV	Tones/nullsilence.WAV
186.599	4.443	1	1	1.716	RhymeSpell/hint.WAV	RhymeSpell/print.WAV
191.042	4.443	0	1	2.442	Tones/nullsilence.WAV	Tones/nullsilence.WAV
195.485	4.443	6	1	1.435	Tones/525800450.WAV	Tones/525800450.WAV
199.928	4.443	0	1	1.309	Tones/nullsilence.WAV	Tones/nullsilence.WAV
204.371	4.442	5	1	1.7	Tones/400.WAV	Tones/400.WAV
208.813	4.443	0	1	1.694	Tones/nullsilence.WAV	Tones/nullsilence.WAV
213.256	4.443	3	0	1.918	RhymeSpell/foot.WAV	RhymeSpell/hoot.WAV
217.699	4.443	0	1	1.667	Tones/nullsilence.WAV	Tones/nullsilence.WAV
222.142	4.443	3	1	3.013	RhymeSpell/glove.WAV	RhymeSpell/drove.WAV
226.585	4.443	0	1	2.068	Tones/nullsilence.WAV	Tones/nullsilence.WAV
231.028	4.442	2	1	1.23	RhymeSpell/trade.WAV	RhymeSpell/paid.WAV
235.47	4.443	3	1	0.796	RhymeSpell/moth.WAV	RhymeSpell/both.WAV
239.913	4.443	4	1	2.35	RhymeSpell/start.WAV	RhymeSpell/pure.WAV
244.356	4.443	6	1	1.659	Tones/600550400.WAV	Tones/675550400.WAV
248.799	4.443	0	1	1.476	Tones/nullsilence.WAV	Tones/nullsilence.WAV
253.242	4.443	5	1	1.328	Tones/500.WAV	Tones/500.WAV
257.685	4.442	0	1	1.713	Tones/nullsilence.WAV	Tones/nullsilence.WAV
262.127	4.443	6	1	1.102	Tones/450650850.WAV	Tones/375650850.WAV
266.57	4.443	0	1	1.339	Tones/nullsilence.WAV	Tones/nullsilence.WAV
271.013	4.443	1	1	1.544	RhymeSpell/wall.WAV	RhymeSpell/tall.WAV
275.456	4.443	0	1	1.936	Tones/nullsilence.WAV	Tones/nullsilence.WAV
279.899	4.443	2	0	1.271	RhymeSpell/glad.WAV	RhymeSpell/plaid.WAV
284.342	4.443	0	1	1.453	Tones/nullsilence.WAV	Tones/nullsilence.WAV
288.785	4.442	5	1	1.778	Tones/725.WAV	Tones/650.WAV
293.227	4.443	0	1	1.733	Tones/nullsilence.WAV	Tones/nullsilence.WAV
297.67	4.443	4	1	1.237	RhymeSpell/strut.WAV	RhymeSpell/glint.WAV
302.113	4.443	2	0	1.139	RhymeSpell/sheet.WAV	RhymeSpell/heat.WAV
306.556	4.443	6	1	2.833	Tones/750300700.WAV	Tones/750300700.WAV
310.999	4.443	2	1	1.109	RhymeSpell/whom.WAV	RhymeSpell/womb.WAV
315.442	4.442	4	1	2.075	RhymeSpell/spare.WAV	RhymeSpell/cow.WAV
319.884	4.443	0	1	2.097	Tones/nullsilence.WAV	Tones/nullsilence.WAV
324.327	4.443	3	1	1.534	RhymeSpell/fat.WAV	RhymeSpell/swat.WAV
328.77	4.443	4	1	1.193	RhymeSpell/team.WAV	RhymeSpell/brief.WAV
333.213	4.443	0	1	2.109	Tones/nullsilence.WAV	Tones/nullsilence.WAV
337.656	4.443	5	1	1.517	Tones/550.WAV	Tones/550.WAV
342.099	4.442	0	1	1.773	Tones/nullsilence.WAV	Tones/nullsilence.WAV
346.541	4.443	3	1	1.626	RhymeSpell/bad.WAV	RhymeSpell/wad.WAV
350.984	4.443	1	1	2.768	RhymeSpell/glare.WAV	RhymeSpell/share.WAV
355.427	4.443	0	1	2.186	Tones/nullsilence.WAV	Tones/nullsilence.WAV
359.87	4.443	1	0	1.801	RhymeSpell/cold.WAV	RhymeSpell/told.WAV
364.313	4.443	6	0	2.008	Tones/775625825.WAV	Tones/775625825.WAV
368.756	4.443	1	1	1.916	RhymeSpell/dawn.WAV	RhymeSpell/lawn.WAV
373.199	4.442	1	1	1.634	RhymeSpell/broke.WAV	RhymeSpell/joke.WAV
377.641	4.443	4	1	1.683	RhymeSpell/craft.WAV	RhymeSpell/young.WAV
382.084	4.443	0	1	1.545	Tones/nullsilence.WAV	Tones/nullsilence.WAV
386.527	4.443	3	1	1.219	RhymeSpell/hull.WAV	RhymeSpell/full.WAV
390.97	4.443	3	0	2.425	RhymeSpell/freight.WAV	RhymeSpell/height.WAV
395.413	4.443	5	1	2.042	Tones/750.WAV	Tones/675.WAV
399.856	4.442	2	1	1.913	RhymeSpell/stool.WAV	RhymeSpell/ghoul.WAV
404.298	4.443	2	1	2.195	RhymeSpell/hoe.WAV	RhymeSpell/throw.WAV
408.741	4.443	0	1	1.607	Tones/nullsilence.WAV	Tones/nullsilence.WAV
413.184	4.443	6	1	1.469	Tones/875675500.WAV	Tones/875675500.WAV
417.627	4.443	3	0	1.523	RhymeSpell/cost.WAV	RhymeSpell/ghost.WAV
422.07	4.443	0	1	1.551	Tones/nullsilence.WAV	Tones/nullsilence.WAV
426.513	4.443	6	0	1.285	Tones/650350575.WAV	Tones/650350575.WAV
430.956	4.442	2	1	2.029	RhymeSpell/gas.WAV	RhymeSpell/pass.WAV
435.398	4.443	3	1	2.569	RhymeSpell/blood.WAV	RhymeSpell/wood.WAV
439.841	4.443	0	1	2.928	Tones/nullsilence.WAV	Tones/nullsilence.WAV
444.284	4.443	4	1	1.666	RhymeSpell/vend.WAV	RhymeSpell/space.WAV
448.727	4.443	2	1	2.156	RhymeSpell/choose.WAV	RhymeSpell/lose.WAV
453.17	4.443	6	1	1.171	Tones/700550775.WAV	Tones/700475775.WAV
457.613	4.442	0	1	1.225	Tones/nullsilence.WAV	Tones/nullsilence.WAV
462.055	4.443	6	1	1.354	Tones/825600375.WAV	Tones/825675375.WAV
466.498	4.443	5	0	1.856	Tones/475.WAV	Tones/550.WAV
470.941	4.443	0	1	1.933	Tones/nullsilence.WAV	Tones/nullsilence.WAV
475.384	4.439	0	1	1.647	Tones/nullsilence.WAV	Tones/nullsilence.WAV
