onset	duration	trial_type	accuracy	response_time	stim1_file	stim2_file
0.0	4.459	3	1	1.214	RhymeSpell/mouth.bmp	RhymeSpell/youth1.bmp
4.459	4.443	2	1	1.119	RhymeSpell/tone.bmp	RhymeSpell/known1.bmp
8.902	4.443	5	1	1.066	Symbols/t.bmp	Symbols/g2.bmp
13.345	4.443	0	1	1.084	RhymeSpell/null.bmp	RhymeSpell/null.bmp
17.788	4.443	3	1	1.039	RhymeSpell/pool.bmp	RhymeSpell/wool2.bmp
22.231	4.442	0	1	1.147	RhymeSpell/null.bmp	RhymeSpell/null.bmp
26.673	4.443	5	1	0.729	Symbols/w.bmp	Symbols/w2.bmp
31.116	4.443	5	1	0.883	Symbols/u.bmp	Symbols/u2.bmp
35.559	4.443	1	1	0.944	RhymeSpell/meal.bmp	RhymeSpell/seal1.bmp
40.002	4.443	0	1	1.13	RhymeSpell/null.bmp	RhymeSpell/null.bmp
44.445	4.443	3	1	1.13	RhymeSpell/low.bmp	RhymeSpell/vow1.bmp
48.888	4.443	6	1	0.827	Symbols/mfc.bmp	Symbols/mfc1.bmp
53.331	4.442	0	1	1.18	RhymeSpell/null.bmp	RhymeSpell/null.bmp
57.773	4.443	0	1	1.061	RhymeSpell/null.bmp	RhymeSpell/null.bmp
62.216	4.443	4	1	1.217	RhymeSpell/wrist.bmp	RhymeSpell/friend2.bmp
66.659	4.443	4	1	1.116	RhymeSpell/halt.bmp	RhymeSpell/stain2.bmp
71.102	4.443	0	1	1.14	RhymeSpell/null.bmp	RhymeSpell/null.bmp
75.545	4.443	6	1	0.841	Symbols/crs.bmp	Symbols/cre2.bmp
79.988	4.442	6	1	1.033	Symbols/pcf.bmp	Symbols/kcf2.bmp
84.43	4.443	0	1	1.234	RhymeSpell/null.bmp	RhymeSpell/null.bmp
88.873	4.443	1	1	1.169	RhymeSpell/cure.bmp	RhymeSpell/sure2.bmp
93.316	4.443	2	1	1.005	RhymeSpell/sleek.bmp	RhymeSpell/speak1.bmp
97.759	4.443	0	1	1.805	RhymeSpell/null.bmp	RhymeSpell/null.bmp
102.202	4.443	4	1	1.106	RhymeSpell/trust.bmp	RhymeSpell/chalk2.bmp
106.645	4.443	2	1	1.149	RhymeSpell/street.bmp	RhymeSpell/wheat2.bmp
111.088	4.442	0	1	1.227	RhymeSpell/null.bmp	RhymeSpell/null.bmp
115.53	4.443	6	1	0.734	Symbols/van.bmp	Symbols/van2.bmp
119.973	4.443	6	1	0.757	Symbols/jzd.bmp	Symbols/jbd2.bmp
124.416	4.443	0	1	1.199	RhymeSpell/null.bmp	RhymeSpell/null.bmp
128.859	4.443	5	1	0.94	Symbols/s.bmp	Symbols/j2.bmp
133.302	4.443	0	1	1.289	RhymeSpell/null.bmp	RhymeSpell/null.bmp
137.745	4.442	2	1	1.081	RhymeSpell/rear.bmp	RhymeSpell/mere1.bmp
142.187	4.443	1	1	0.941	RhymeSpell/crown.bmp	RhymeSpell/town2.bmp
146.63	4.443	3	1	1.145	RhymeSpell/sword.bmp	RhymeSpell/word2.bmp
151.073	4.443	6	1	0.939	Symbols/ksg.bmp	Symbols/ksj2.bmp
155.516	4.443	3	1	1.047	RhymeSpell/head.bmp	RhymeSpell/bead2.bmp
159.959	4.443	0	1	1.204	RhymeSpell/null.bmp	RhymeSpell/null.bmp
164.402	4.442	5	1	0.815	Symbols/l.bmp	Symbols/l2.bmp
168.844	4.443	0	1	1.279	RhymeSpell/null.bmp	RhymeSpell/null.bmp
173.287	4.443	6	1	0.694	Symbols/uab.bmp	Symbols/iab1.bmp
177.73	4.443	2	1	0.667	RhymeSpell/size.bmp	RhymeSpell/wise2.bmp
182.173	4.443	4	1	0.912	RhymeSpell/clash.bmp	RhymeSpell/worse1.bmp
186.616	4.443	5	1	0.927	Symbols/c.bmp	Symbols/v1.bmp
191.059	4.443	0	1	1.263	RhymeSpell/null.bmp	RhymeSpell/null.bmp
195.502	4.443	0	1	0.902	RhymeSpell/null.bmp	RhymeSpell/null.bmp
199.945	4.442	4	1	0.871	RhymeSpell/loose.bmp	RhymeSpell/drew1.bmp
204.387	4.443	0	1	0.88	RhymeSpell/null.bmp	RhymeSpell/null.bmp
208.83	4.443	4	1	0.852	RhymeSpell/yeast.bmp	RhymeSpell/tooth1.bmp
213.273	4.443	0	1	1.086	RhymeSpell/null.bmp	RhymeSpell/null.bmp
217.716	4.443	3	1	0.9	RhymeSpell/shove.bmp	RhymeSpell/wove1.bmp
222.159	4.442	5	1	0.899	Symbols/n.bmp	Symbols/n1.bmp
226.601	4.443	2	1	1.305	RhymeSpell/chair.bmp	RhymeSpell/scare1.bmp
231.044	4.443	0	1	0.928	RhymeSpell/null.bmp	RhymeSpell/null.bmp
235.487	4.443	1	1	0.73	RhymeSpell/dad.bmp	RhymeSpell/sad1.bmp
239.93	4.443	0	1	0.785	RhymeSpell/null.bmp	RhymeSpell/null.bmp
244.373	4.443	4	1	0.708	RhymeSpell/beef.bmp	RhymeSpell/keep2.bmp
248.816	4.442	3	1	1.173	RhymeSpell/broad.bmp	RhymeSpell/toad1.bmp
253.258	4.443	0	1	1.111	RhymeSpell/null.bmp	RhymeSpell/null.bmp
257.701	4.443	0	1	0.985	RhymeSpell/null.bmp	RhymeSpell/null.bmp
262.144	4.443	4	1	1.154	RhymeSpell/rail.bmp	RhymeSpell/fast1.bmp
266.587	4.443	0	1	1.18	RhymeSpell/null.bmp	RhymeSpell/null.bmp
271.03	4.443	1	1	1.433	RhymeSpell/leg.bmp	RhymeSpell/peg2.bmp
275.473	4.443	1	1	1.099	RhymeSpell/mule.bmp	RhymeSpell/rule2.bmp
279.916	4.442	6	1	0.847	Symbols/upw.bmp	Symbols/upw1.bmp
284.358	4.443	6	1	0.934	Symbols/myh.bmp	Symbols/myl1.bmp
288.801	4.443	0	0	n/a	RhymeSpell/null.bmp	RhymeSpell/null.bmp
293.244	4.443	4	1	0.854	RhymeSpell/storm.bmp	RhymeSpell/chose2.bmp
297.687	4.443	0	1	0.825	RhymeSpell/null.bmp	RhymeSpell/null.bmp
302.13	4.443	2	1	0.77	RhymeSpell/prize.bmp	RhymeSpell/rise1.bmp
306.573	4.442	0	1	1.106	RhymeSpell/null.bmp	RhymeSpell/null.bmp
311.015	4.443	1	1	0.874	RhymeSpell/fought.bmp	RhymeSpell/sought2.bmp
315.458	4.443	4	1	0.905	RhymeSpell/wage.bmp	RhymeSpell/spice1.bmp
319.901	4.443	1	1	1.124	RhymeSpell/beast.bmp	RhymeSpell/least2.bmp
324.344	4.443	5	1	0.69	Symbols/i.bmp	Symbols/i2.bmp
328.787	4.443	5	1	0.956	Symbols/r.bmp	Symbols/z2.bmp
333.23	4.443	0	1	1.036	RhymeSpell/null.bmp	RhymeSpell/null.bmp
337.673	4.442	4	1	0.722	RhymeSpell/dome.bmp	RhymeSpell/fool2.bmp
342.115	4.443	0	1	1.212	RhymeSpell/null.bmp	RhymeSpell/null.bmp
346.558	4.443	1	1	0.955	RhymeSpell/grant.bmp	RhymeSpell/slant1.bmp
351.001	4.443	1	1	0.902	RhymeSpell/numb.bmp	RhymeSpell/thumb2.bmp
355.444	4.443	1	1	1.359	RhymeSpell/chess.bmp	RhymeSpell/press2.bmp
359.887	4.443	6	1	0.761	Symbols/hio.bmp	Symbols/hio2.bmp
364.33	4.442	3	1	1.003	RhymeSpell/damp.bmp	RhymeSpell/swamp1.bmp
368.772	4.443	2	1	0.892	RhymeSpell/true.bmp	RhymeSpell/grew2.bmp
373.215	4.443	0	1	1.065	RhymeSpell/null.bmp	RhymeSpell/null.bmp
377.658	4.443	5	1	0.725	Symbols/p.bmp	Symbols/s1.bmp
382.101	4.443	3	1	0.965	RhymeSpell/shown.bmp	RhymeSpell/clown2.bmp
386.544	4.443	4	1	0.815	RhymeSpell/paint.bmp	RhymeSpell/sigh2.bmp
390.987	4.442	1	1	1.166	RhymeSpell/stone.bmp	RhymeSpell/zone1.bmp
395.429	4.443	0	1	0.918	RhymeSpell/null.bmp	RhymeSpell/null.bmp
399.872	4.443	6	1	0.827	Symbols/mey.bmp	Symbols/mey2.bmp
404.315	4.443	0	1	0.951	RhymeSpell/null.bmp	RhymeSpell/null.bmp
408.758	4.443	0	1	1.032	RhymeSpell/null.bmp	RhymeSpell/null.bmp
413.201	4.443	2	1	0.841	RhymeSpell/spear.bmp	RhymeSpell/sphere2.bmp
417.644	4.443	0	1	1.049	RhymeSpell/null.bmp	RhymeSpell/null.bmp
422.087	4.442	6	1	0.71	Symbols/odt.bmp	Symbols/odt2.bmp
426.529	4.443	2	1	0.751	RhymeSpell/pro.bmp	RhymeSpell/mow2.bmp
430.972	4.443	0	1	0.758	RhymeSpell/null.bmp	RhymeSpell/null.bmp
435.415	4.443	4	1	2.166	RhymeSpell/home.bmp	RhymeSpell/form2.bmp
439.858	4.443	3	1	1.354	RhymeSpell/smooth.bmp	RhymeSpell/booth2.bmp
444.301	4.443	0	1	1.055	RhymeSpell/null.bmp	RhymeSpell/null.bmp
448.744	4.442	1	1	0.641	RhymeSpell/grief.bmp	RhymeSpell/thief1.bmp
453.186	4.443	2	0	0.942	RhymeSpell/top.bmp	RhymeSpell/swap2.bmp
457.629	4.443	5	1	0.696	Symbols/v.bmp	Symbols/h1.bmp
462.072	4.443	0	1	1.082	RhymeSpell/null.bmp	RhymeSpell/null.bmp
466.515	4.443	5	1	0.769	Symbols/h.bmp	Symbols/c2.bmp
470.958	4.443	0	1	0.947	RhymeSpell/null.bmp	RhymeSpell/null.bmp
475.401	4.439	4	1	1.965	RhymeSpell/dream.bmp	RhymeSpell/blame1.bmp
