onset	duration	trial_type	accuracy	response_time	stim1_file	stim2_file
0.0	4.443	2	1	0.675	RhymeSpell/stroll.bmp	RhymeSpell/bowl1.bmp
4.443	4.442	2	1	0.815	RhymeSpell/shed.bmp	RhymeSpell/tread1.bmp
8.885	4.443	0	1	0.89	RhymeSpell/null.bmp	RhymeSpell/null.bmp
13.328	4.443	3	1	0.781	RhymeSpell/cove.bmp	RhymeSpell/prove2.bmp
17.771	4.443	0	1	0.471	RhymeSpell/null.bmp	RhymeSpell/null.bmp
22.214	4.443	3	1	0.674	RhymeSpell/climb.bmp	RhymeSpell/limb1.bmp
26.657	4.443	5	1	0.657	Symbols/m.bmp	Symbols/m2.bmp
31.1	4.442	1	1	0.726	RhymeSpell/class.bmp	RhymeSpell/mass2.bmp
35.542	4.443	0	1	0.914	RhymeSpell/null.bmp	RhymeSpell/null.bmp
39.985	4.443	1	1	0.82	RhymeSpell/brain.bmp	RhymeSpell/train2.bmp
44.428	4.443	4	1	0.636	RhymeSpell/norm.bmp	RhymeSpell/group1.bmp
48.871	4.443	2	1	0.859	RhymeSpell/caught.bmp	RhymeSpell/bought2.bmp
53.314	4.443	2	0	0.613	RhymeSpell/putt.bmp	RhymeSpell/cut2.bmp
57.757	4.442	0	1	0.54	RhymeSpell/null.bmp	RhymeSpell/null.bmp
62.199	4.443	1	1	0.614	RhymeSpell/nod.bmp	RhymeSpell/rod1.bmp
66.642	4.443	0	1	0.758	RhymeSpell/null.bmp	RhymeSpell/null.bmp
71.085	4.443	5	1	0.962	Symbols/z.bmp	Symbols/t1.bmp
75.528	4.443	0	1	0.706	RhymeSpell/null.bmp	RhymeSpell/null.bmp
79.971	4.443	3	1	0.712	RhymeSpell/hatch.bmp	RhymeSpell/watch2.bmp
84.414	4.443	6	1	0.712	Symbols/lfa.bmp	Symbols/lfa1.bmp
88.857	4.442	1	1	0.53	RhymeSpell/mark.bmp	RhymeSpell/park1.bmp
93.299	4.443	0	1	0.692	RhymeSpell/null.bmp	RhymeSpell/null.bmp
97.742	4.443	5	1	0.904	Symbols/j.bmp	Symbols/o1.bmp
102.185	4.443	5	1	0.597	Symbols/b.bmp	Symbols/b2.bmp
106.628	4.443	2	1	1.21	RhymeSpell/stuff.bmp	RhymeSpell/rough1.bmp
111.071	4.443	0	1	0.654	RhymeSpell/null.bmp	RhymeSpell/null.bmp
115.514	4.442	3	1	1.13	RhymeSpell/cheat.bmp	RhymeSpell/sweat1.bmp
119.956	4.443	0	1	0.85	RhymeSpell/null.bmp	RhymeSpell/null.bmp
124.399	4.443	6	1	0.761	Symbols/zti.bmp	Symbols/zvi1.bmp
128.842	4.443	0	1	0.684	RhymeSpell/null.bmp	RhymeSpell/null.bmp
133.285	4.443	3	1	0.854	RhymeSpell/flood.bmp	RhymeSpell/mood1.bmp
137.728	4.443	4	0	n/a	RhymeSpell/slap.bmp	RhymeSpell/tool1.bmp
142.171	4.442	5	1	0.529	Symbols/y.bmp	Symbols/y1.bmp
146.613	4.443	1	1	0.824	RhymeSpell/paste.bmp	RhymeSpell/taste1.bmp
151.056	4.443	0	1	0.52	RhymeSpell/null.bmp	RhymeSpell/null.bmp
155.499	4.443	4	1	1.162	RhymeSpell/walk.bmp	RhymeSpell/reef2.bmp
159.942	4.443	5	1	0.625	Symbols/a.bmp	Symbols/a1.bmp
164.385	4.443	0	1	0.765	RhymeSpell/null.bmp	RhymeSpell/null.bmp
168.828	4.442	4	1	0.753	RhymeSpell/trap.bmp	RhymeSpell/treat1.bmp
173.27	4.443	0	1	0.913	RhymeSpell/null.bmp	RhymeSpell/null.bmp
177.713	4.443	6	1	0.854	Symbols/drp.bmp	Symbols/drn1.bmp
182.156	4.443	0	1	0.795	RhymeSpell/null.bmp	RhymeSpell/null.bmp
186.599	4.443	1	1	0.815	RhymeSpell/sir.bmp	RhymeSpell/stir1.bmp
191.042	4.443	0	1	0.755	RhymeSpell/null.bmp	RhymeSpell/null.bmp
195.485	4.443	6	1	0.843	Symbols/ntv.bmp	Symbols/ntv2.bmp
199.928	4.442	0	1	1.163	RhymeSpell/null.bmp	RhymeSpell/null.bmp
204.37	4.443	5	1	0.64	Symbols/e.bmp	Symbols/e1.bmp
208.813	4.443	0	1	0.932	RhymeSpell/null.bmp	RhymeSpell/null.bmp
213.256	4.443	3	1	0.657	RhymeSpell/chase.bmp	RhymeSpell/phrase2.bmp
217.699	4.443	0	1	1.607	RhymeSpell/null.bmp	RhymeSpell/null.bmp
222.142	4.443	3	1	0.739	RhymeSpell/fan.bmp	RhymeSpell/swan1.bmp
226.585	4.442	0	1	0.538	RhymeSpell/null.bmp	RhymeSpell/null.bmp
231.027	4.443	2	1	0.862	RhymeSpell/cone.bmp	RhymeSpell/blown2.bmp
235.47	4.443	3	1	0.588	RhymeSpell/deaf.bmp	RhymeSpell/leaf2.bmp
239.913	4.443	4	1	3.052	RhymeSpell/drown.bmp	RhymeSpell/whose1.bmp
244.356	4.443	6	1	0.878	Symbols/gbk.bmp	Symbols/rbk2.bmp
248.799	4.443	0	0	1.025	RhymeSpell/null.bmp	RhymeSpell/null.bmp
253.242	4.442	5	1	0.556	Symbols/f.bmp	Symbols/f1.bmp
257.684	4.443	0	1	0.743	RhymeSpell/null.bmp	RhymeSpell/null.bmp
262.127	4.443	6	1	0.979	Symbols/zsj.bmp	Symbols/wsj1.bmp
266.57	4.443	0	1	1.171	RhymeSpell/null.bmp	RhymeSpell/null.bmp
271.013	4.443	1	1	0.794	RhymeSpell/chance.bmp	RhymeSpell/dance2.bmp
275.456	4.443	0	1	0.545	RhymeSpell/null.bmp	RhymeSpell/null.bmp
279.899	4.442	2	1	0.883	RhymeSpell/zone.bmp	RhymeSpell/flown1.bmp
284.341	4.443	0	1	0.714	RhymeSpell/null.bmp	RhymeSpell/null.bmp
288.784	4.443	5	1	0.66	Symbols/o.bmp	Symbols/d1.bmp
293.227	4.443	0	1	0.282	RhymeSpell/null.bmp	RhymeSpell/null.bmp
297.67	4.443	4	1	0.687	RhymeSpell/pose.bmp	RhymeSpell/brown2.bmp
302.113	4.443	2	1	0.707	RhymeSpell/mom.bmp	RhymeSpell/bomb1.bmp
306.556	4.443	6	1	0.775	Symbols/lwy.bmp	Symbols/lwy1.bmp
310.999	4.442	2	1	0.53	RhymeSpell/dose.bmp	RhymeSpell/gross1.bmp
315.441	4.443	4	1	0.662	RhymeSpell/theme.bmp	RhymeSpell/jail2.bmp
319.884	4.443	0	1	0.717	RhymeSpell/null.bmp	RhymeSpell/null.bmp
324.327	4.443	3	1	0.781	RhymeSpell/doll.bmp	RhymeSpell/toll1.bmp
328.77	4.443	4	1	0.663	RhymeSpell/thus.bmp	RhymeSpell/stay2.bmp
333.213	4.443	0	1	1.415	RhymeSpell/null.bmp	RhymeSpell/null.bmp
337.656	4.442	5	1	0.838	Symbols/k.bmp	Symbols/k1.bmp
342.098	4.443	0	1	0.864	RhymeSpell/null.bmp	RhymeSpell/null.bmp
346.541	4.443	3	1	0.759	RhymeSpell/charm.bmp	RhymeSpell/swarm1.bmp
350.984	4.443	1	1	1.051	RhymeSpell/boss.bmp	RhymeSpell/moss1.bmp
355.427	4.443	0	1	0.547	RhymeSpell/null.bmp	RhymeSpell/null.bmp
359.87	4.443	1	1	0.752	RhymeSpell/tax.bmp	RhymeSpell/wax1.bmp
364.313	4.442	6	1	0.636	Symbols/lik.bmp	Symbols/lik1.bmp
368.755	4.443	1	1	1.189	RhymeSpell/moose.bmp	RhymeSpell/goose1.bmp
373.198	4.443	1	1	0.602	RhymeSpell/hut.bmp	RhymeSpell/shut2.bmp
377.641	4.443	4	1	0.73	RhymeSpell/soup.bmp	RhymeSpell/stood1.bmp
382.084	4.443	0	1	0.563	RhymeSpell/null.bmp	RhymeSpell/null.bmp
386.527	4.443	3	1	0.533	RhymeSpell/pint.bmp	RhymeSpell/mint1.bmp
390.97	4.442	3	1	0.718	RhymeSpell/frost.bmp	RhymeSpell/post1.bmp
395.412	4.443	5	1	0.632	Symbols/g.bmp	Symbols/p2.bmp
399.855	4.443	2	0	0.738	RhymeSpell/cheer.bmp	RhymeSpell/gear1.bmp
404.298	4.443	2	1	0.992	RhymeSpell/dare.bmp	RhymeSpell/swear2.bmp
408.741	4.443	0	1	0.543	RhymeSpell/null.bmp	RhymeSpell/null.bmp
413.184	4.443	6	1	0.616	Symbols/one.bmp	Symbols/one2.bmp
417.627	4.442	3	1	0.796	RhymeSpell/card.bmp	RhymeSpell/ward2.bmp
422.069	4.443	0	1	0.974	RhymeSpell/null.bmp	RhymeSpell/null.bmp
426.512	4.443	6	1	0.592	Symbols/hvj.bmp	Symbols/hvj1.bmp
430.955	4.443	2	1	0.659	RhymeSpell/seek.bmp	RhymeSpell/beak2.bmp
435.398	4.443	3	1	0.852	RhymeSpell/five.bmp	RhymeSpell/give1.bmp
439.841	4.443	0	1	0.552	RhymeSpell/null.bmp	RhymeSpell/null.bmp
444.284	4.443	4	1	0.694	RhymeSpell/thigh.bmp	RhymeSpell/duke1.bmp
448.727	4.442	2	0	0.867	RhymeSpell/clean.bmp	RhymeSpell/screen2.bmp
453.169	4.443	6	1	1.406	Symbols/rbe.bmp	Symbols/rte1.bmp
457.612	4.443	0	1	2.807	RhymeSpell/null.bmp	RhymeSpell/null.bmp
462.055	4.443	6	1	0.686	Symbols/wug.bmp	Symbols/wyg2.bmp
466.498	4.443	5	1	0.762	Symbols/d.bmp	Symbols/r2.bmp
470.941	4.443	0	1	0.144	RhymeSpell/null.bmp	RhymeSpell/null.bmp
475.384	4.439	0	1	0.442	RhymeSpell/null.bmp	RhymeSpell/null.bmp
