onset	duration	trial_type	accuracy	response_time	stim1_file	stim2_file
0.0	4.443	3	0	1.67	RhymeSpell/took.WAV	RhymeSpell/spook.WAV
4.443	4.443	2	0	1.845	RhymeSpell/quo.WAV	RhymeSpell/glow.WAV
8.886	4.443	5	1	0.817	Tones/675.WAV	Tones/600.WAV
13.329	4.442	0	1	0.796	Tones/nullsilence.WAV	Tones/nullsilence.WAV
17.771	4.443	3	1	1.16	RhymeSpell/seat.WAV	RhymeSpell/threat.WAV
22.214	4.443	0	1	0.84	Tones/nullsilence.WAV	Tones/nullsilence.WAV
26.657	4.443	5	1	0.886	Tones/600.WAV	Tones/600.WAV
31.1	4.443	5	1	0.762	Tones/325.WAV	Tones/325.WAV
35.543	4.443	1	1	1.159	RhymeSpell/car.WAV	RhymeSpell/star.WAV
39.986	4.442	0	1	0.969	Tones/nullsilence.WAV	Tones/nullsilence.WAV
44.428	4.443	3	1	1.072	RhymeSpell/flash.WAV	RhymeSpell/wash.WAV
48.871	4.443	6	1	0.963	Tones/425600750.WAV	Tones/425600750.WAV
53.314	4.443	0	1	0.936	Tones/nullsilence.WAV	Tones/nullsilence.WAV
57.757	4.443	0	1	0.867	Tones/nullsilence.WAV	Tones/nullsilence.WAV
62.2	4.443	4	1	2.499	RhymeSpell/name.WAV	RhymeSpell/knee.WAV
66.643	4.443	4	0	1.242	RhymeSpell/cap.WAV	RhymeSpell/north.WAV
71.086	4.442	0	1	1.246	Tones/nullsilence.WAV	Tones/nullsilence.WAV
75.528	4.443	6	1	1.029	Tones/550800525.WAV	Tones/550800600.WAV
79.971	4.443	6	1	1.817	Tones/350825400.WAV	Tones/425825400.WAV
84.414	4.443	0	1	0.817	Tones/nullsilence.WAV	Tones/nullsilence.WAV
88.857	4.443	1	1	1.114	RhymeSpell/page.WAV	RhymeSpell/stage.WAV
93.3	4.443	2	1	0.98	RhymeSpell/woe.WAV	RhymeSpell/show.WAV
97.743	4.442	0	1	0.942	Tones/nullsilence.WAV	Tones/nullsilence.WAV
102.185	4.443	4	1	1.046	RhymeSpell/scheme.WAV	RhymeSpell/saint.WAV
106.628	4.443	2	1	1.805	RhymeSpell/foe.WAV	RhymeSpell/stow.WAV
111.071	4.443	0	1	0.743	Tones/nullsilence.WAV	Tones/nullsilence.WAV
115.514	4.443	6	1	0.817	Tones/650475300.WAV	Tones/650475300.WAV
119.957	4.443	6	1	0.994	Tones/425675500.WAV	Tones/425750500.WAV
124.4	4.442	0	1	0.961	Tones/nullsilence.WAV	Tones/nullsilence.WAV
128.842	4.443	5	1	0.962	Tones/350.WAV	Tones/425.WAV
133.285	4.443	0	1	1.187	Tones/nullsilence.WAV	Tones/nullsilence.WAV
137.728	4.443	2	1	0.843	RhymeSpell/weird.WAV	RhymeSpell/beard.WAV
142.171	4.443	1	1	0.903	RhymeSpell/cage.WAV	RhymeSpell/rage.WAV
146.614	4.443	3	1	1.553	RhymeSpell/grand.WAV	RhymeSpell/wand.WAV
151.057	4.442	6	1	1.305	Tones/875575325.WAV	Tones/875575400.WAV
155.499	4.443	3	1	0.895	RhymeSpell/breast.WAV	RhymeSpell/feast.WAV
159.942	4.443	0	1	0.871	Tones/nullsilence.WAV	Tones/nullsilence.WAV
164.385	4.443	5	1	1.225	Tones/850.WAV	Tones/850.WAV
168.828	4.443	0	1	1.078	Tones/nullsilence.WAV	Tones/nullsilence.WAV
173.271	4.443	6	0	1.544	Tones/725400775.WAV	Tones/650400775.WAV
177.714	4.443	2	1	1.306	RhymeSpell/plea.WAV	RhymeSpell/key.WAV
182.157	4.442	4	1	1.689	RhymeSpell/boom.WAV	RhymeSpell/past.WAV
186.599	4.443	5	1	0.927	Tones/775.WAV	Tones/700.WAV
191.042	4.443	0	1	0.667	Tones/nullsilence.WAV	Tones/nullsilence.WAV
195.485	4.443	0	1	0.736	Tones/nullsilence.WAV	Tones/nullsilence.WAV
199.928	4.443	4	1	0.936	RhymeSpell/brass.WAV	RhymeSpell/gut.WAV
204.371	4.443	0	1	0.76	Tones/nullsilence.WAV	Tones/nullsilence.WAV
208.814	4.442	4	0	2.07	RhymeSpell/nail.WAV	RhymeSpell/weep.WAV
213.256	4.443	0	1	0.98	Tones/nullsilence.WAV	Tones/nullsilence.WAV
217.699	4.443	3	1	1.163	RhymeSpell/christ.WAV	RhymeSpell/twist.WAV
222.142	4.443	5	1	0.673	Tones/625.WAV	Tones/625.WAV
226.585	4.443	2	0	0.788	RhymeSpell/froze.WAV	RhymeSpell/nose.WAV
231.028	4.443	0	1	0.778	Tones/nullsilence.WAV	Tones/nullsilence.WAV
235.471	4.442	1	0	1.196	RhymeSpell/cork.WAV	RhymeSpell/stork.WAV
239.913	4.443	0	1	0.864	Tones/nullsilence.WAV	Tones/nullsilence.WAV
244.356	4.443	4	1	1.375	RhymeSpell/food.WAV	RhymeSpell/brought.WAV
248.799	4.443	3	1	2.326	RhymeSpell/gone.WAV	RhymeSpell/phone.WAV
253.242	4.443	0	1	0.817	Tones/nullsilence.WAV	Tones/nullsilence.WAV
257.685	4.443	0	1	0.57	Tones/nullsilence.WAV	Tones/nullsilence.WAV
262.128	4.443	4	1	0.716	RhymeSpell/jet.WAV	RhymeSpell/pace.WAV
266.571	4.442	0	1	0.996	Tones/nullsilence.WAV	Tones/nullsilence.WAV
271.013	4.443	1	1	0.927	RhymeSpell/grow.WAV	RhymeSpell/snow.WAV
275.456	4.443	1	1	1.02	RhymeSpell/fluff.WAV	RhymeSpell/puff.WAV
279.899	4.443	6	1	1.666	Tones/325500725.WAV	Tones/325500725.WAV
284.342	4.443	6	1	1.097	Tones/625450850.WAV	Tones/625450775.WAV
288.785	4.443	0	1	0.728	Tones/nullsilence.WAV	Tones/nullsilence.WAV
293.228	4.442	4	1	1.168	RhymeSpell/calm.WAV	RhymeSpell/fame.WAV
297.67	4.443	0	1	0.86	Tones/nullsilence.WAV	Tones/nullsilence.WAV
302.113	4.443	2	0	1.074	RhymeSpell/grade.WAV	RhymeSpell/laid.WAV
306.556	4.443	0	1	1.0	Tones/nullsilence.WAV	Tones/nullsilence.WAV
310.999	4.443	1	0	1.441	RhymeSpell/care.WAV	RhymeSpell/rare.WAV
315.442	4.443	4	1	1.641	RhymeSpell/fall.WAV	RhymeSpell/tint.WAV
319.885	4.442	1	1	1.533	RhymeSpell/note.WAV	RhymeSpell/wrote.WAV
324.327	4.443	5	1	0.797	Tones/800.WAV	Tones/800.WAV
328.77	4.443	5	1	0.947	Tones/375.WAV	Tones/450.WAV
333.213	4.443	0	1	1.012	Tones/nullsilence.WAV	Tones/nullsilence.WAV
337.656	4.443	4	1	1.077	RhymeSpell/splash.WAV	RhymeSpell/braid.WAV
342.099	4.443	0	1	0.856	Tones/nullsilence.WAV	Tones/nullsilence.WAV
346.542	4.443	1	0	1.223	RhymeSpell/spruce.WAV	RhymeSpell/truce.WAV
350.985	4.442	1	1	1.091	RhymeSpell/shell.WAV	RhymeSpell/tell.WAV
355.427	4.443	1	1	1.305	RhymeSpell/fist.WAV	RhymeSpell/gist.WAV
359.87	4.443	6	1	1.617	Tones/875675300.WAV	Tones/875675300.WAV
364.313	4.443	3	1	1.132	RhymeSpell/phase.WAV	RhymeSpell/case.WAV
368.756	4.443	2	0	0.817	RhymeSpell/run.WAV	RhymeSpell/ton.WAV
373.199	4.443	0	1	0.862	Tones/nullsilence.WAV	Tones/nullsilence.WAV
377.642	4.442	5	1	1.714	Tones/650.WAV	Tones/575.WAV
382.084	4.443	3	1	1.486	RhymeSpell/scarce.WAV	RhymeSpell/farce.WAV
386.527	4.443	4	0	1.774	RhymeSpell/half.WAV	RhymeSpell/bake.WAV
390.97	4.443	1	1	1.058	RhymeSpell/cart.WAV	RhymeSpell/smart.WAV
395.413	4.443	0	1	0.789	Tones/nullsilence.WAV	Tones/nullsilence.WAV
399.856	4.443	6	1	0.997	Tones/375750475.WAV	Tones/375750475.WAV
404.299	4.442	0	1	0.945	Tones/nullsilence.WAV	Tones/nullsilence.WAV
408.741	4.443	0	1	0.858	Tones/nullsilence.WAV	Tones/nullsilence.WAV
413.184	4.443	2	0	0.816	RhymeSpell/hood.WAV	RhymeSpell/should.WAV
417.627	4.443	0	1	0.911	Tones/nullsilence.WAV	Tones/nullsilence.WAV
422.07	4.443	6	1	0.933	Tones/375800525.WAV	Tones/375800525.WAV
426.513	4.443	2	1	0.947	RhymeSpell/fruit.WAV	RhymeSpell/loot.WAV
430.956	4.443	0	1	1.11	Tones/nullsilence.WAV	Tones/nullsilence.WAV
435.399	4.442	4	1	0.911	RhymeSpell/palm.WAV	RhymeSpell/salt.WAV
439.841	4.443	3	0	0.922	RhymeSpell/shall.WAV	RhymeSpell/call.WAV
444.284	4.443	0	1	0.874	Tones/nullsilence.WAV	Tones/nullsilence.WAV
448.727	4.443	1	1	1.086	RhymeSpell/clear.WAV	RhymeSpell/fear.WAV
453.17	4.443	2	1	1.872	RhymeSpell/view.WAV	RhymeSpell/few.WAV
457.613	4.443	5	1	1.555	Tones/300.WAV	Tones/375.WAV
462.056	4.442	0	1	0.882	Tones/nullsilence.WAV	Tones/nullsilence.WAV
466.498	4.443	5	1	0.752	Tones/575.WAV	Tones/650.WAV
470.941	4.443	0	1	0.74	Tones/nullsilence.WAV	Tones/nullsilence.WAV
475.384	4.439	4	1	0.825	RhymeSpell/crease.WAV	RhymeSpell/shave.WAV
