onset	duration	trial_type	accuracy	response_time	stim1_file	stim2_file
0.0	4.442	4	0	1.338	Tones/450.WAV	Tones/525.WAV
4.442	4.443	2	1	1.199	Semantic/human.WAV	Semantic/person.WAV
8.885	4.443	0	1	1.208	Tones/nullsilence.WAV	Tones/nullsilence.WAV
13.328	4.443	4	0	1.24	Tones/825.WAV	Tones/750.WAV
17.771	4.443	5	1	1.186	Tones/375800525.WAV	Tones/375800525.WAV
22.214	4.443	0	0	n/a	Tones/nullsilence.WAV	Tones/nullsilence.WAV
26.657	4.443	5	1	1.971	Tones/350475625.WAV	Tones/350475625.WAV
31.1	4.442	4	1	2.999	Tones/875.WAV	Tones/875.WAV
35.542	4.443	4	1	2.922	Tones/525.WAV	Tones/525.WAV
39.985	4.443	0	1	2.254	Tones/nullsilence.WAV	Tones/nullsilence.WAV
44.428	4.443	1	1	1.435	Semantic/web.WAV	Semantic/spider.WAV
48.871	4.443	2	1	1.771	Semantic/dig.WAV	Semantic/shovel.WAV
53.314	4.443	0	1	1.225	Tones/nullsilence.WAV	Tones/nullsilence.WAV
57.757	4.442	3	0	1.602	Semantic/trade.WAV	Semantic/square.WAV
62.199	4.443	5	0	1.247	Tones/325575725.WAV	Tones/325500725.WAV
66.642	4.443	1	1	1.293	Semantic/murder.WAV	Semantic/kill.WAV
71.085	4.443	0	0	n/a	Tones/nullsilence.WAV	Tones/nullsilence.WAV
75.528	4.443	1	1	1.056	Semantic/trash.WAV	Semantic/garbage.WAV
79.971	4.443	0	0	n/a	Tones/nullsilence.WAV	Tones/nullsilence.WAV
84.414	4.442	1	1	1.354	Semantic/tall.WAV	Semantic/short.WAV
88.856	4.443	0	0	n/a	Tones/nullsilence.WAV	Tones/nullsilence.WAV
93.299	4.443	2	1	1.645	Semantic/raisin.WAV	Semantic/prune.WAV
97.742	4.443	0	0	n/a	Tones/nullsilence.WAV	Tones/nullsilence.WAV
102.185	4.443	1	1	1.821	Semantic/baggage.WAV	Semantic/luggage.WAV
106.628	4.443	0	1	1.374	Tones/nullsilence.WAV	Tones/nullsilence.WAV
111.071	4.443	2	1	2.5	Semantic/picture.WAV	Semantic/painting.WAV
115.514	4.442	2	1	1.3	Semantic/truth.WAV	Semantic/honest.WAV
119.956	4.443	0	0	n/a	Tones/nullsilence.WAV	Tones/nullsilence.WAV
124.399	4.443	3	0	3.266	Semantic/gently.WAV	Semantic/ceiling.WAV
128.842	4.443	0	1	2.328	Tones/nullsilence.WAV	Tones/nullsilence.WAV
133.285	4.443	4	1	1.477	Tones/425.WAV	Tones/425.WAV
137.728	4.443	0	1	2.492	Tones/nullsilence.WAV	Tones/nullsilence.WAV
142.171	4.442	1	1	2.911	Semantic/buyer.WAV	Semantic/seller.WAV
146.613	4.443	1	1	1.609	Semantic/insect.WAV	Semantic/bug.WAV
151.056	4.443	2	1	2.951	Semantic/cactus.WAV	Semantic/prickly.WAV
155.499	4.443	0	0	n/a	Tones/nullsilence.WAV	Tones/nullsilence.WAV
159.942	4.443	1	1	1.44	Semantic/big.WAV	Semantic/small.WAV
164.385	4.443	0	1	1.383	Tones/nullsilence.WAV	Tones/nullsilence.WAV
168.828	4.442	3	1	2.072	Semantic/stack.WAV	Semantic/chef.WAV
173.27	4.443	0	1	2.158	Tones/nullsilence.WAV	Tones/nullsilence.WAV
177.713	4.443	3	1	1.516	Semantic/headed.WAV	Semantic/thirty.WAV
182.156	4.443	0	0	n/a	Tones/nullsilence.WAV	Tones/nullsilence.WAV
186.599	4.443	1	1	1.988	Semantic/summer.WAV	Semantic/winter.WAV
191.042	4.443	4	1	1.33	Tones/400.WAV	Tones/400.WAV
195.485	4.443	0	1	1.293	Tones/nullsilence.WAV	Tones/nullsilence.WAV
199.928	4.442	1	1	1.821	Semantic/itch.WAV	Semantic/scratch.WAV
204.37	4.443	4	1	1.513	Tones/500.WAV	Tones/500.WAV
208.813	4.443	3	0	1.543	Semantic/turtle.WAV	Semantic/boom.WAV
213.256	4.443	0	0	n/a	Tones/nullsilence.WAV	Tones/nullsilence.WAV
217.699	4.443	5	0	1.761	Tones/425700850.WAV	Tones/425700775.WAV
222.142	4.443	0	1	2.031	Tones/nullsilence.WAV	Tones/nullsilence.WAV
226.585	4.442	4	0	n/a	Tones/725.WAV	Tones/650.WAV
231.027	4.443	1	1	1.215	Semantic/bunny.WAV	Semantic/rabbit.WAV
235.47	4.443	2	1	2.358	Semantic/sneeze.WAV	Semantic/cough.WAV
239.913	4.443	3	1	1.906	Semantic/secret.WAV	Semantic/tone.WAV
244.356	4.443	1	1	1.263	Semantic/fuel.WAV	Semantic/gas.WAV
248.799	4.443	0	0	n/a	Tones/nullsilence.WAV	Tones/nullsilence.WAV
253.242	4.442	3	1	1.493	Semantic/lord.WAV	Semantic/oil.WAV
257.684	4.443	2	0	2.431	Semantic/sly.WAV	Semantic/sneaky.WAV
262.127	4.443	0	0	n/a	Tones/nullsilence.WAV	Tones/nullsilence.WAV
266.57	4.443	0	0	n/a	Tones/nullsilence.WAV	Tones/nullsilence.WAV
271.013	4.443	3	1	2.986	Semantic/pirate.WAV	Semantic/bandage.WAV
275.456	4.443	4	1	1.947	Tones/550.WAV	Tones/550.WAV
279.899	4.443	0	1	1.82	Tones/nullsilence.WAV	Tones/nullsilence.WAV
284.342	4.442	5	1	1.223	Tones/525800450.WAV	Tones/525800450.WAV
288.784	4.443	2	1	1.197	Semantic/call.WAV	Semantic/phone.WAV
293.227	4.443	0	1	1.26	Tones/nullsilence.WAV	Tones/nullsilence.WAV
297.67	4.443	1	0	1.854	Semantic/handbag.WAV	Semantic/purse.WAV
302.113	4.443	2	1	1.811	Semantic/pimple.WAV	Semantic/zit.WAV
306.556	4.443	0	1	1.989	Tones/nullsilence.WAV	Tones/nullsilence.WAV
310.999	4.442	5	0	1.689	Tones/600550400.WAV	Tones/675550400.WAV
315.441	4.443	4	0	1.299	Tones/750.WAV	Tones/675.WAV
319.884	4.443	0	1	2.53	Tones/nullsilence.WAV	Tones/nullsilence.WAV
324.327	4.443	3	0	1.464	Semantic/mansion.WAV	Semantic/super.WAV
328.77	4.443	2	1	1.9	Semantic/skunk.WAV	Semantic/stink.WAV
333.213	4.443	0	1	1.321	Tones/nullsilence.WAV	Tones/nullsilence.WAV
337.656	4.443	5	0	1.63	Tones/450650850.WAV	Tones/375650850.WAV
342.099	4.442	0	1	2.992	Tones/nullsilence.WAV	Tones/nullsilence.WAV
346.541	4.443	5	1	2.208	Tones/750300700.WAV	Tones/750300700.WAV
350.984	4.443	5	1	0.915	Tones/775625825.WAV	Tones/775625825.WAV
355.427	4.443	5	1	1.397	Tones/875675500.WAV	Tones/875675500.WAV
359.87	4.443	0	0	n/a	Tones/nullsilence.WAV	Tones/nullsilence.WAV
364.313	4.443	5	1	2.902	Tones/650350575.WAV	Tones/650350575.WAV
368.756	4.442	5	0	1.408	Tones/700550775.WAV	Tones/700475775.WAV
373.198	4.443	3	1	1.611	Semantic/spell.WAV	Semantic/dim.WAV
377.641	4.443	3	1	2.145	Semantic/bacon.WAV	Semantic/wipe.WAV
382.084	4.443	4	0	1.431	Tones/475.WAV	Tones/550.WAV
386.527	4.443	5	0	1.615	Tones/825600375.WAV	Tones/825675375.WAV
390.97	4.439	0	1	3.191	Tones/nullsilence.WAV	Tones/nullsilence.WAV
