onset	duration	trial_type	accuracy	response_time	stim1_file	stim2_file
0.0	4.442	4	1	1.273	Tones/450.WAV	Tones/525.WAV
4.442	4.443	2	1	1.873	Semantic/human.WAV	Semantic/person.WAV
8.885	4.443	0	1	1.424	Tones/nullsilence.WAV	Tones/nullsilence.WAV
13.328	4.443	4	1	0.993	Tones/825.WAV	Tones/750.WAV
17.771	4.442	5	1	1.392	Tones/375800525.WAV	Tones/375800525.WAV
22.213	4.443	0	1	0.275	Tones/nullsilence.WAV	Tones/nullsilence.WAV
26.656	4.443	5	1	1.423	Tones/350475625.WAV	Tones/350475625.WAV
31.099	4.443	4	1	1.585	Tones/875.WAV	Tones/875.WAV
35.542	4.443	4	1	1.581	Tones/525.WAV	Tones/525.WAV
39.985	4.443	0	1	1.832	Tones/nullsilence.WAV	Tones/nullsilence.WAV
44.428	4.442	1	1	1.344	Semantic/web.WAV	Semantic/spider.WAV
48.87	4.443	2	1	1.353	Semantic/dig.WAV	Semantic/shovel.WAV
53.313	4.443	0	1	1.533	Tones/nullsilence.WAV	Tones/nullsilence.WAV
57.756	4.443	3	1	2.137	Semantic/trade.WAV	Semantic/square.WAV
62.199	4.443	5	0	1.851	Tones/325575725.WAV	Tones/325500725.WAV
66.642	4.443	1	1	1.291	Semantic/murder.WAV	Semantic/kill.WAV
71.085	4.443	0	1	1.562	Tones/nullsilence.WAV	Tones/nullsilence.WAV
75.528	4.442	1	1	1.902	Semantic/trash.WAV	Semantic/garbage.WAV
79.97	4.443	0	1	2.547	Tones/nullsilence.WAV	Tones/nullsilence.WAV
84.413	4.443	1	1	1.89	Semantic/tall.WAV	Semantic/short.WAV
88.856	4.443	0	1	2.072	Tones/nullsilence.WAV	Tones/nullsilence.WAV
93.299	4.443	2	1	1.356	Semantic/raisin.WAV	Semantic/prune.WAV
97.742	4.443	0	1	1.429	Tones/nullsilence.WAV	Tones/nullsilence.WAV
102.185	4.442	1	1	1.328	Semantic/baggage.WAV	Semantic/luggage.WAV
106.627	4.443	0	1	1.613	Tones/nullsilence.WAV	Tones/nullsilence.WAV
111.07	4.443	2	1	1.199	Semantic/picture.WAV	Semantic/painting.WAV
115.513	4.443	2	1	1.187	Semantic/truth.WAV	Semantic/honest.WAV
119.956	4.443	0	1	1.344	Tones/nullsilence.WAV	Tones/nullsilence.WAV
124.399	4.443	3	1	1.351	Semantic/gently.WAV	Semantic/ceiling.WAV
128.842	4.442	0	1	1.697	Tones/nullsilence.WAV	Tones/nullsilence.WAV
133.284	4.443	4	1	1.637	Tones/425.WAV	Tones/425.WAV
137.727	4.443	0	1	2.276	Tones/nullsilence.WAV	Tones/nullsilence.WAV
142.17	4.443	1	0	1.953	Semantic/buyer.WAV	Semantic/seller.WAV
146.613	4.443	1	1	1.05	Semantic/insect.WAV	Semantic/bug.WAV
151.056	4.443	2	1	1.533	Semantic/cactus.WAV	Semantic/prickly.WAV
155.499	4.442	0	1	1.137	Tones/nullsilence.WAV	Tones/nullsilence.WAV
159.941	4.443	1	1	1.388	Semantic/big.WAV	Semantic/small.WAV
164.384	4.443	0	1	2.443	Tones/nullsilence.WAV	Tones/nullsilence.WAV
168.827	4.443	3	1	1.454	Semantic/stack.WAV	Semantic/chef.WAV
173.27	4.443	0	1	1.562	Tones/nullsilence.WAV	Tones/nullsilence.WAV
177.713	4.443	3	1	1.218	Semantic/headed.WAV	Semantic/thirty.WAV
182.156	4.443	0	1	1.569	Tones/nullsilence.WAV	Tones/nullsilence.WAV
186.599	4.442	1	1	2.034	Semantic/summer.WAV	Semantic/winter.WAV
191.041	4.443	4	1	2.277	Tones/400.WAV	Tones/400.WAV
195.484	4.443	0	1	1.761	Tones/nullsilence.WAV	Tones/nullsilence.WAV
199.927	4.443	1	1	1.398	Semantic/itch.WAV	Semantic/scratch.WAV
204.37	4.443	4	1	1.254	Tones/500.WAV	Tones/500.WAV
208.813	4.443	3	1	1.197	Semantic/turtle.WAV	Semantic/boom.WAV
213.256	4.442	0	1	1.431	Tones/nullsilence.WAV	Tones/nullsilence.WAV
217.698	4.443	5	0	1.478	Tones/425700850.WAV	Tones/425700775.WAV
222.141	4.443	0	1	1.259	Tones/nullsilence.WAV	Tones/nullsilence.WAV
226.584	4.443	4	1	2.904	Tones/725.WAV	Tones/650.WAV
231.027	4.443	1	1	1.399	Semantic/bunny.WAV	Semantic/rabbit.WAV
235.47	4.443	2	1	1.446	Semantic/sneeze.WAV	Semantic/cough.WAV
239.913	4.442	3	1	1.099	Semantic/secret.WAV	Semantic/tone.WAV
244.355	4.443	1	1	1.291	Semantic/fuel.WAV	Semantic/gas.WAV
248.798	4.443	0	1	1.262	Tones/nullsilence.WAV	Tones/nullsilence.WAV
253.241	4.443	3	1	2.064	Semantic/lord.WAV	Semantic/oil.WAV
257.684	4.443	2	0	1.3	Semantic/sly.WAV	Semantic/sneaky.WAV
262.127	4.443	0	1	2.262	Tones/nullsilence.WAV	Tones/nullsilence.WAV
266.57	4.442	0	1	1.259	Tones/nullsilence.WAV	Tones/nullsilence.WAV
271.012	4.443	3	1	1.998	Semantic/pirate.WAV	Semantic/bandage.WAV
275.455	4.443	4	1	2.02	Tones/550.WAV	Tones/550.WAV
279.898	4.443	0	1	1.335	Tones/nullsilence.WAV	Tones/nullsilence.WAV
284.341	4.443	5	1	1.24	Tones/525800450.WAV	Tones/525800450.WAV
288.784	4.443	2	1	1.222	Semantic/call.WAV	Semantic/phone.WAV
293.227	4.443	0	1	0.954	Tones/nullsilence.WAV	Tones/nullsilence.WAV
297.67	4.442	1	1	1.207	Semantic/handbag.WAV	Semantic/purse.WAV
302.112	4.443	2	1	1.248	Semantic/pimple.WAV	Semantic/zit.WAV
306.555	4.443	0	1	1.549	Tones/nullsilence.WAV	Tones/nullsilence.WAV
310.998	4.443	5	0	2.596	Tones/600550400.WAV	Tones/675550400.WAV
315.441	4.443	4	1	1.287	Tones/750.WAV	Tones/675.WAV
319.884	4.443	0	1	1.196	Tones/nullsilence.WAV	Tones/nullsilence.WAV
324.327	4.442	3	1	1.316	Semantic/mansion.WAV	Semantic/super.WAV
328.769	4.443	2	1	1.366	Semantic/skunk.WAV	Semantic/stink.WAV
333.212	4.443	0	1	1.387	Tones/nullsilence.WAV	Tones/nullsilence.WAV
337.655	4.443	5	1	1.105	Tones/450650850.WAV	Tones/375650850.WAV
342.098	4.443	0	1	1.432	Tones/nullsilence.WAV	Tones/nullsilence.WAV
346.541	4.443	5	1	1.117	Tones/750300700.WAV	Tones/750300700.WAV
350.984	4.442	5	1	1.336	Tones/775625825.WAV	Tones/775625825.WAV
355.426	4.443	5	1	1.13	Tones/875675500.WAV	Tones/875675500.WAV
359.869	4.443	0	1	1.274	Tones/nullsilence.WAV	Tones/nullsilence.WAV
364.312	4.443	5	1	1.325	Tones/650350575.WAV	Tones/650350575.WAV
368.755	4.443	5	0	1.5	Tones/700550775.WAV	Tones/700475775.WAV
373.198	4.443	3	1	1.31	Semantic/spell.WAV	Semantic/dim.WAV
377.641	4.442	3	1	1.272	Semantic/bacon.WAV	Semantic/wipe.WAV
382.083	4.443	4	1	1.105	Tones/475.WAV	Tones/550.WAV
386.526	4.443	5	1	1.331	Tones/825600375.WAV	Tones/825675375.WAV
390.969	4.439	0	1	1.426	Tones/nullsilence.WAV	Tones/nullsilence.WAV
