onset	duration	trial_type	accuracy	response_time	stim1_file	stim2_file
0.0	4.443	3	1	2.29	RhymeSpell/mouth.bmp	RhymeSpell/youth1.bmp
4.443	4.443	2	0	2.0	RhymeSpell/tone.bmp	RhymeSpell/known1.bmp
8.886	4.443	5	1	1.082	Symbols/t.bmp	Symbols/g2.bmp
13.329	4.442	0	1	1.287	RhymeSpell/null.bmp	RhymeSpell/null.bmp
17.771	4.443	3	0	1.726	RhymeSpell/pool.bmp	RhymeSpell/wool2.bmp
22.214	4.443	0	1	1.517	RhymeSpell/null.bmp	RhymeSpell/null.bmp
26.657	4.443	5	1	0.787	Symbols/w.bmp	Symbols/w2.bmp
31.1	4.443	5	1	0.829	Symbols/u.bmp	Symbols/u2.bmp
35.543	4.443	1	1	1.513	RhymeSpell/meal.bmp	RhymeSpell/seal1.bmp
39.986	4.442	0	1	1.705	RhymeSpell/null.bmp	RhymeSpell/null.bmp
44.428	4.443	3	1	1.809	RhymeSpell/low.bmp	RhymeSpell/vow1.bmp
48.871	4.443	6	1	1.03	Symbols/mfc.bmp	Symbols/mfc1.bmp
53.314	4.443	0	1	1.609	RhymeSpell/null.bmp	RhymeSpell/null.bmp
57.757	4.443	0	1	1.924	RhymeSpell/null.bmp	RhymeSpell/null.bmp
62.2	4.443	4	1	1.317	RhymeSpell/wrist.bmp	RhymeSpell/friend2.bmp
66.643	4.442	4	1	1.623	RhymeSpell/halt.bmp	RhymeSpell/stain2.bmp
71.085	4.443	0	1	1.924	RhymeSpell/null.bmp	RhymeSpell/null.bmp
75.528	4.443	6	0	2.082	Symbols/crs.bmp	Symbols/cre2.bmp
79.971	4.443	6	1	0.773	Symbols/pcf.bmp	Symbols/kcf2.bmp
84.414	4.443	0	1	2.096	RhymeSpell/null.bmp	RhymeSpell/null.bmp
88.857	4.443	1	0	2.162	RhymeSpell/cure.bmp	RhymeSpell/sure2.bmp
93.3	4.443	2	0	2.912	RhymeSpell/sleek.bmp	RhymeSpell/speak1.bmp
97.743	4.442	0	1	1.338	RhymeSpell/null.bmp	RhymeSpell/null.bmp
102.185	4.443	4	1	1.417	RhymeSpell/trust.bmp	RhymeSpell/chalk2.bmp
106.628	4.443	2	1	2.353	RhymeSpell/street.bmp	RhymeSpell/wheat2.bmp
111.071	4.443	0	1	1.462	RhymeSpell/null.bmp	RhymeSpell/null.bmp
115.514	4.443	6	1	0.632	Symbols/van.bmp	Symbols/van2.bmp
119.957	4.443	6	1	0.989	Symbols/jzd.bmp	Symbols/jbd2.bmp
124.4	4.442	0	1	2.105	RhymeSpell/null.bmp	RhymeSpell/null.bmp
128.842	4.443	5	1	1.166	Symbols/s.bmp	Symbols/j2.bmp
133.285	4.443	0	1	1.446	RhymeSpell/null.bmp	RhymeSpell/null.bmp
137.728	4.443	2	1	2.184	RhymeSpell/rear.bmp	RhymeSpell/mere1.bmp
142.171	4.443	1	1	2.249	RhymeSpell/crown.bmp	RhymeSpell/town2.bmp
146.614	4.443	3	1	2.589	RhymeSpell/sword.bmp	RhymeSpell/word2.bmp
151.057	4.442	6	1	1.233	Symbols/ksg.bmp	Symbols/ksj2.bmp
155.499	4.443	3	0	1.9	RhymeSpell/head.bmp	RhymeSpell/bead2.bmp
159.942	4.443	0	1	1.611	RhymeSpell/null.bmp	RhymeSpell/null.bmp
164.385	4.443	5	1	0.979	Symbols/l.bmp	Symbols/l2.bmp
168.828	4.443	0	1	1.692	RhymeSpell/null.bmp	RhymeSpell/null.bmp
173.271	4.443	6	0	1.44	Symbols/uab.bmp	Symbols/iab1.bmp
177.714	4.442	2	0	2.947	RhymeSpell/size.bmp	RhymeSpell/wise2.bmp
182.156	4.443	4	1	1.829	RhymeSpell/clash.bmp	RhymeSpell/worse1.bmp
186.599	4.443	5	1	0.883	Symbols/c.bmp	Symbols/v1.bmp
191.042	4.443	0	1	1.474	RhymeSpell/null.bmp	RhymeSpell/null.bmp
195.485	4.443	0	1	1.831	RhymeSpell/null.bmp	RhymeSpell/null.bmp
199.928	4.443	4	0	3.179	RhymeSpell/loose.bmp	RhymeSpell/drew1.bmp
204.371	4.442	0	1	1.331	RhymeSpell/null.bmp	RhymeSpell/null.bmp
208.813	4.443	4	1	1.652	RhymeSpell/yeast.bmp	RhymeSpell/tooth1.bmp
213.256	4.443	0	1	1.562	RhymeSpell/null.bmp	RhymeSpell/null.bmp
217.699	4.443	3	0	n/a	RhymeSpell/shove.bmp	RhymeSpell/wove1.bmp
222.142	4.443	5	1	1.337	Symbols/n.bmp	Symbols/n1.bmp
226.585	4.443	2	1	1.676	RhymeSpell/chair.bmp	RhymeSpell/scare1.bmp
231.028	4.442	0	1	1.572	RhymeSpell/null.bmp	RhymeSpell/null.bmp
235.47	4.443	1	1	2.237	RhymeSpell/dad.bmp	RhymeSpell/sad1.bmp
239.913	4.443	0	1	1.871	RhymeSpell/null.bmp	RhymeSpell/null.bmp
244.356	4.443	4	1	2.734	RhymeSpell/beef.bmp	RhymeSpell/keep2.bmp
248.799	4.443	3	0	n/a	RhymeSpell/broad.bmp	RhymeSpell/toad1.bmp
253.242	4.443	0	1	1.315	RhymeSpell/null.bmp	RhymeSpell/null.bmp
257.685	4.443	0	1	1.805	RhymeSpell/null.bmp	RhymeSpell/null.bmp
262.128	4.442	4	1	1.977	RhymeSpell/rail.bmp	RhymeSpell/fast1.bmp
266.57	4.443	0	1	1.616	RhymeSpell/null.bmp	RhymeSpell/null.bmp
271.013	4.443	1	0	2.382	RhymeSpell/leg.bmp	RhymeSpell/peg2.bmp
275.456	4.443	1	0	2.62	RhymeSpell/mule.bmp	RhymeSpell/rule2.bmp
279.899	4.443	6	1	1.024	Symbols/upw.bmp	Symbols/upw1.bmp
284.342	4.443	6	0	1.37	Symbols/myh.bmp	Symbols/myl1.bmp
288.785	4.442	0	1	1.517	RhymeSpell/null.bmp	RhymeSpell/null.bmp
293.227	4.443	4	1	2.203	RhymeSpell/storm.bmp	RhymeSpell/chose2.bmp
297.67	4.443	0	1	1.577	RhymeSpell/null.bmp	RhymeSpell/null.bmp
302.113	4.443	2	1	1.839	RhymeSpell/prize.bmp	RhymeSpell/rise1.bmp
306.556	4.443	0	1	1.473	RhymeSpell/null.bmp	RhymeSpell/null.bmp
310.999	4.443	1	1	1.653	RhymeSpell/fought.bmp	RhymeSpell/sought2.bmp
315.442	4.442	4	1	1.544	RhymeSpell/wage.bmp	RhymeSpell/spice1.bmp
319.884	4.443	1	1	1.685	RhymeSpell/beast.bmp	RhymeSpell/least2.bmp
324.327	4.443	5	1	1.084	Symbols/i.bmp	Symbols/i2.bmp
328.77	4.443	5	1	1.029	Symbols/r.bmp	Symbols/z2.bmp
333.213	4.443	0	1	1.483	RhymeSpell/null.bmp	RhymeSpell/null.bmp
337.656	4.443	4	1	1.843	RhymeSpell/dome.bmp	RhymeSpell/fool2.bmp
342.099	4.442	0	1	1.415	RhymeSpell/null.bmp	RhymeSpell/null.bmp
346.541	4.443	1	1	1.933	RhymeSpell/grant.bmp	RhymeSpell/slant1.bmp
350.984	4.443	1	1	1.427	RhymeSpell/numb.bmp	RhymeSpell/thumb2.bmp
355.427	4.443	1	1	1.734	RhymeSpell/chess.bmp	RhymeSpell/press2.bmp
359.87	4.443	6	1	1.148	Symbols/hio.bmp	Symbols/hio2.bmp
364.313	4.443	3	1	2.073	RhymeSpell/damp.bmp	RhymeSpell/swamp1.bmp
368.756	4.442	2	1	2.065	RhymeSpell/true.bmp	RhymeSpell/grew2.bmp
373.198	4.443	0	1	1.28	RhymeSpell/null.bmp	RhymeSpell/null.bmp
377.641	4.443	5	1	0.878	Symbols/p.bmp	Symbols/s1.bmp
382.084	4.443	3	0	2.023	RhymeSpell/shown.bmp	RhymeSpell/clown2.bmp
386.527	4.443	4	1	2.337	RhymeSpell/paint.bmp	RhymeSpell/sigh2.bmp
390.97	4.443	1	1	2.218	RhymeSpell/stone.bmp	RhymeSpell/zone1.bmp
395.413	4.442	0	1	1.486	RhymeSpell/null.bmp	RhymeSpell/null.bmp
399.855	4.443	6	1	0.95	Symbols/mey.bmp	Symbols/mey2.bmp
404.298	4.443	0	1	1.938	RhymeSpell/null.bmp	RhymeSpell/null.bmp
408.741	4.443	0	1	1.943	RhymeSpell/null.bmp	RhymeSpell/null.bmp
413.184	4.443	2	0	2.619	RhymeSpell/spear.bmp	RhymeSpell/sphere2.bmp
417.627	4.443	0	1	1.494	RhymeSpell/null.bmp	RhymeSpell/null.bmp
422.07	4.443	6	1	1.07	Symbols/odt.bmp	Symbols/odt2.bmp
426.513	4.442	2	1	3.074	RhymeSpell/pro.bmp	RhymeSpell/mow2.bmp
430.955	4.443	0	1	1.415	RhymeSpell/null.bmp	RhymeSpell/null.bmp
435.398	4.443	4	1	2.763	RhymeSpell/home.bmp	RhymeSpell/form2.bmp
439.841	4.443	3	0	n/a	RhymeSpell/smooth.bmp	RhymeSpell/booth2.bmp
444.284	4.443	0	1	1.552	RhymeSpell/null.bmp	RhymeSpell/null.bmp
448.727	4.443	1	1	1.547	RhymeSpell/grief.bmp	RhymeSpell/thief1.bmp
453.17	4.442	2	1	2.773	RhymeSpell/top.bmp	RhymeSpell/swap2.bmp
457.612	4.443	5	1	1.051	Symbols/v.bmp	Symbols/h1.bmp
462.055	4.443	0	1	1.703	RhymeSpell/null.bmp	RhymeSpell/null.bmp
466.498	4.443	5	1	1.57	Symbols/h.bmp	Symbols/c2.bmp
470.941	4.443	0	1	1.941	RhymeSpell/null.bmp	RhymeSpell/null.bmp
475.384	4.439	4	1	2.472	RhymeSpell/dream.bmp	RhymeSpell/blame1.bmp
