onset	duration	trial_type	accuracy	response_time	stim1_file	stim2_file
0.0	4.443	3	0	2.219	RhymeSpell/mouth.WAV	RhymeSpell/youth.WAV
4.443	4.443	2	1	1.251	RhymeSpell/tone.WAV	RhymeSpell/known.WAV
8.886	4.638	5	0	1.31	Tones/675.WAV	Tones/600.WAV
13.524	4.443	0	1	1.343	Tones/nullsilence.WAV	Tones/nullsilence.WAV
17.967	4.442	3	1	1.403	RhymeSpell/pool.WAV	RhymeSpell/wool.WAV
22.409	4.443	0	1	1.601	Tones/nullsilence.WAV	Tones/nullsilence.WAV
26.852	4.443	5	1	0.927	Tones/600.WAV	Tones/600.WAV
31.295	4.443	5	1	2.462	Tones/325.WAV	Tones/325.WAV
35.738	4.443	1	1	2.381	RhymeSpell/meal.WAV	RhymeSpell/seal.WAV
40.181	4.443	0	1	0.227	Tones/nullsilence.WAV	Tones/nullsilence.WAV
44.624	4.442	3	1	2.685	RhymeSpell/low.WAV	RhymeSpell/vow.WAV
49.066	4.443	6	0	1.677	Tones/425600750.WAV	Tones/425600750.WAV
53.509	4.443	0	1	1.419	Tones/nullsilence.WAV	Tones/nullsilence.WAV
57.952	4.443	0	1	2.528	Tones/nullsilence.WAV	Tones/nullsilence.WAV
62.395	4.443	4	1	1.757	RhymeSpell/wrist.WAV	RhymeSpell/friend.WAV
66.838	4.443	4	0	2.547	RhymeSpell/halt.WAV	RhymeSpell/stain.WAV
71.281	4.443	0	1	3.141	Tones/nullsilence.WAV	Tones/nullsilence.WAV
75.724	4.442	6	1	1.889	Tones/550800525.WAV	Tones/550800600.WAV
80.166	4.443	6	1	2.827	Tones/350825400.WAV	Tones/425825400.WAV
84.609	4.443	0	1	1.322	Tones/nullsilence.WAV	Tones/nullsilence.WAV
89.052	4.443	1	1	2.941	RhymeSpell/cure.WAV	RhymeSpell/sure.WAV
93.495	4.443	2	1	1.784	RhymeSpell/sleek.WAV	RhymeSpell/speak.WAV
97.938	4.443	0	1	1.457	Tones/nullsilence.WAV	Tones/nullsilence.WAV
102.381	4.442	4	1	2.728	RhymeSpell/trust.WAV	RhymeSpell/chalk.WAV
106.823	4.443	2	1	1.16	RhymeSpell/street.WAV	RhymeSpell/wheat.WAV
111.266	4.443	0	1	1.272	Tones/nullsilence.WAV	Tones/nullsilence.WAV
115.709	4.443	6	0	1.984	Tones/650475300.WAV	Tones/650475300.WAV
120.152	4.443	6	1	1.471	Tones/425675500.WAV	Tones/425750500.WAV
124.595	4.443	0	1	1.481	Tones/nullsilence.WAV	Tones/nullsilence.WAV
129.038	4.442	5	0	2.946	Tones/350.WAV	Tones/425.WAV
133.48	4.443	0	0	n/a	Tones/nullsilence.WAV	Tones/nullsilence.WAV
137.923	4.443	2	0	2.533	RhymeSpell/rear.WAV	RhymeSpell/mere.WAV
142.366	4.443	1	1	0.95	RhymeSpell/crown.WAV	RhymeSpell/town.WAV
146.809	4.443	3	1	1.151	RhymeSpell/sword.WAV	RhymeSpell/word.WAV
151.252	4.443	6	1	1.713	Tones/875575325.WAV	Tones/875575400.WAV
155.695	4.442	3	1	2.814	RhymeSpell/head.WAV	RhymeSpell/bead.WAV
160.137	4.443	0	1	1.14	Tones/nullsilence.WAV	Tones/nullsilence.WAV
164.58	4.443	5	1	1.778	Tones/850.WAV	Tones/850.WAV
169.023	4.443	0	1	1.181	Tones/nullsilence.WAV	Tones/nullsilence.WAV
173.466	4.443	6	0	1.753	Tones/725400775.WAV	Tones/650400775.WAV
177.909	4.443	2	1	1.14	RhymeSpell/size.WAV	RhymeSpell/wise.WAV
182.352	4.443	4	0	1.199	RhymeSpell/clash.WAV	RhymeSpell/worse.WAV
186.795	4.442	5	0	1.958	Tones/775.WAV	Tones/700.WAV
191.237	4.443	0	1	1.299	Tones/nullsilence.WAV	Tones/nullsilence.WAV
195.68	4.443	0	1	1.731	Tones/nullsilence.WAV	Tones/nullsilence.WAV
200.123	4.443	4	1	1.109	RhymeSpell/loose.WAV	RhymeSpell/drew.WAV
204.566	4.443	0	1	1.382	Tones/nullsilence.WAV	Tones/nullsilence.WAV
209.009	4.443	4	1	2.631	RhymeSpell/yeast.WAV	RhymeSpell/tooth.WAV
213.452	4.442	0	1	1.544	Tones/nullsilence.WAV	Tones/nullsilence.WAV
217.894	4.443	3	1	2.585	RhymeSpell/shove.WAV	RhymeSpell/wove.WAV
222.337	4.443	5	1	2.008	Tones/625.WAV	Tones/625.WAV
226.78	4.443	2	1	1.653	RhymeSpell/chair.WAV	RhymeSpell/scare.WAV
231.223	4.443	0	1	3.022	Tones/nullsilence.WAV	Tones/nullsilence.WAV
235.666	4.443	1	0	3.294	RhymeSpell/dad.WAV	RhymeSpell/sad.WAV
240.109	4.442	0	1	2.5	Tones/nullsilence.WAV	Tones/nullsilence.WAV
244.551	4.443	4	1	2.211	RhymeSpell/beef.WAV	RhymeSpell/keep.WAV
248.994	4.443	3	1	2.26	RhymeSpell/broad.WAV	RhymeSpell/toad.WAV
253.437	4.443	0	1	1.358	Tones/nullsilence.WAV	Tones/nullsilence.WAV
257.88	4.443	0	1	1.431	Tones/nullsilence.WAV	Tones/nullsilence.WAV
262.323	4.443	4	0	n/a	RhymeSpell/rail.WAV	RhymeSpell/fast.WAV
266.766	4.443	0	1	2.242	Tones/nullsilence.WAV	Tones/nullsilence.WAV
271.209	4.442	1	1	1.738	RhymeSpell/leg.WAV	RhymeSpell/peg.WAV
275.651	4.443	1	1	2.286	RhymeSpell/mule.WAV	RhymeSpell/rule.WAV
280.094	4.443	6	1	1.734	Tones/325500725.WAV	Tones/325500725.WAV
284.537	4.443	6	1	1.738	Tones/625450850.WAV	Tones/625450775.WAV
288.98	4.443	0	0	n/a	Tones/nullsilence.WAV	Tones/nullsilence.WAV
293.423	4.443	4	0	n/a	RhymeSpell/storm.WAV	RhymeSpell/chose.WAV
297.866	4.442	0	0	n/a	Tones/nullsilence.WAV	Tones/nullsilence.WAV
302.308	4.443	2	1	2.741	RhymeSpell/prize.WAV	RhymeSpell/rise.WAV
306.751	4.443	0	1	3.106	Tones/nullsilence.WAV	Tones/nullsilence.WAV
311.194	4.443	1	0	3.101	RhymeSpell/fought.WAV	RhymeSpell/sought.WAV
315.637	4.443	4	1	2.155	RhymeSpell/wage.WAV	RhymeSpell/spice.WAV
320.08	4.443	1	1	2.063	RhymeSpell/beast.WAV	RhymeSpell/least.WAV
324.523	4.442	5	0	3.236	Tones/800.WAV	Tones/800.WAV
328.965	4.443	5	1	1.594	Tones/375.WAV	Tones/450.WAV
333.408	4.443	0	1	1.442	Tones/nullsilence.WAV	Tones/nullsilence.WAV
337.851	4.443	4	0	n/a	RhymeSpell/dome.WAV	RhymeSpell/fool.WAV
342.294	4.443	0	0	n/a	Tones/nullsilence.WAV	Tones/nullsilence.WAV
346.737	4.443	1	1	1.523	RhymeSpell/grant.WAV	RhymeSpell/slant.WAV
351.18	4.442	1	0	2.705	RhymeSpell/numb.WAV	RhymeSpell/thumb.WAV
355.622	4.443	1	1	1.822	RhymeSpell/chess.WAV	RhymeSpell/press.WAV
360.065	4.443	6	0	1.679	Tones/875675300.WAV	Tones/875675300.WAV
364.508	4.443	3	0	n/a	RhymeSpell/damp.WAV	RhymeSpell/swamp.WAV
368.951	4.443	2	1	1.295	RhymeSpell/true.WAV	RhymeSpell/grew.WAV
373.394	4.443	0	1	1.204	Tones/nullsilence.WAV	Tones/nullsilence.WAV
377.837	4.443	5	1	1.364	Tones/650.WAV	Tones/575.WAV
382.28	4.442	3	1	2.914	RhymeSpell/shown.WAV	RhymeSpell/clown.WAV
386.722	4.443	4	1	1.198	RhymeSpell/paint.WAV	RhymeSpell/sigh.WAV
391.165	4.443	1	1	1.175	RhymeSpell/stone.WAV	RhymeSpell/zone.WAV
395.608	4.443	0	1	1.246	Tones/nullsilence.WAV	Tones/nullsilence.WAV
400.051	4.443	6	1	1.892	Tones/375750475.WAV	Tones/375750475.WAV
404.494	4.443	0	0	n/a	Tones/nullsilence.WAV	Tones/nullsilence.WAV
408.937	4.443	0	1	1.777	Tones/nullsilence.WAV	Tones/nullsilence.WAV
413.38	4.442	2	0	2.584	RhymeSpell/spear.WAV	RhymeSpell/sphere.WAV
417.822	4.443	0	1	2.266	Tones/nullsilence.WAV	Tones/nullsilence.WAV
422.265	4.443	6	0	1.762	Tones/375800525.WAV	Tones/375800525.WAV
426.708	4.443	2	0	n/a	RhymeSpell/pro.WAV	RhymeSpell/mow.WAV
431.151	4.443	0	1	1.508	Tones/nullsilence.WAV	Tones/nullsilence.WAV
435.594	4.442	4	1	2.971	RhymeSpell/home.WAV	RhymeSpell/form.WAV
440.036	4.443	3	0	2.4	RhymeSpell/smooth.WAV	RhymeSpell/booth.WAV
444.479	4.443	0	1	1.565	Tones/nullsilence.WAV	Tones/nullsilence.WAV
448.922	4.443	1	1	1.666	RhymeSpell/grief.WAV	RhymeSpell/thief.WAV
453.365	4.443	2	0	1.71	RhymeSpell/top.WAV	RhymeSpell/swap.WAV
457.808	4.443	5	0	1.174	Tones/300.WAV	Tones/375.WAV
462.251	4.442	0	1	1.243	Tones/nullsilence.WAV	Tones/nullsilence.WAV
466.693	4.443	5	0	2.291	Tones/575.WAV	Tones/650.WAV
471.136	4.443	0	1	1.464	Tones/nullsilence.WAV	Tones/nullsilence.WAV
475.579	4.439	4	0	1.452	RhymeSpell/dream.WAV	RhymeSpell/blame.WAV
