onset	duration	trial_type	accuracy	response_time	stim1_file	stim2_file
0.0	4.638	4	1	2.883	Tones/450.WAV	Tones/525.WAV
4.638	4.443	2	1	1.833	Semantic/human.WAV	Semantic/person.WAV
9.081	4.443	0	1	1.812	Tones/nullsilence.WAV	Tones/nullsilence.WAV
13.524	4.443	4	1	1.549	Tones/825.WAV	Tones/750.WAV
17.967	4.443	5	1	1.725	Tones/375800525.WAV	Tones/375800525.WAV
22.41	4.442	0	1	2.248	Tones/nullsilence.WAV	Tones/nullsilence.WAV
26.852	4.443	5	1	1.564	Tones/350475625.WAV	Tones/350475625.WAV
31.295	4.443	4	1	1.683	Tones/875.WAV	Tones/875.WAV
35.738	4.443	4	1	1.651	Tones/525.WAV	Tones/525.WAV
40.181	4.443	0	1	1.752	Tones/nullsilence.WAV	Tones/nullsilence.WAV
44.624	4.443	1	1	1.539	Semantic/web.WAV	Semantic/spider.WAV
49.067	4.442	2	1	1.595	Semantic/dig.WAV	Semantic/shovel.WAV
53.509	4.443	0	1	1.7	Tones/nullsilence.WAV	Tones/nullsilence.WAV
57.952	4.443	3	1	2.297	Semantic/trade.WAV	Semantic/square.WAV
62.395	4.443	5	0	2.438	Tones/325575725.WAV	Tones/325500725.WAV
66.838	4.443	1	1	1.821	Semantic/murder.WAV	Semantic/kill.WAV
71.281	4.443	0	1	1.515	Tones/nullsilence.WAV	Tones/nullsilence.WAV
75.724	4.442	1	1	1.799	Semantic/trash.WAV	Semantic/garbage.WAV
80.166	4.443	0	1	1.572	Tones/nullsilence.WAV	Tones/nullsilence.WAV
84.609	4.443	1	1	1.833	Semantic/tall.WAV	Semantic/short.WAV
89.052	4.443	0	1	2.034	Tones/nullsilence.WAV	Tones/nullsilence.WAV
93.495	4.443	2	0	2.029	Semantic/raisin.WAV	Semantic/prune.WAV
97.938	4.443	0	1	1.541	Tones/nullsilence.WAV	Tones/nullsilence.WAV
102.381	4.442	1	1	1.718	Semantic/baggage.WAV	Semantic/luggage.WAV
106.823	4.443	0	1	1.966	Tones/nullsilence.WAV	Tones/nullsilence.WAV
111.266	4.443	2	1	1.917	Semantic/picture.WAV	Semantic/painting.WAV
115.709	4.443	2	1	2.414	Semantic/truth.WAV	Semantic/honest.WAV
120.152	4.443	0	1	1.961	Tones/nullsilence.WAV	Tones/nullsilence.WAV
124.595	4.443	3	1	2.033	Semantic/gently.WAV	Semantic/ceiling.WAV
129.038	4.443	0	1	1.637	Tones/nullsilence.WAV	Tones/nullsilence.WAV
133.481	4.442	4	1	2.353	Tones/425.WAV	Tones/425.WAV
137.923	4.443	0	1	1.672	Tones/nullsilence.WAV	Tones/nullsilence.WAV
142.366	4.443	1	1	2.452	Semantic/buyer.WAV	Semantic/seller.WAV
146.809	4.443	1	1	1.412	Semantic/insect.WAV	Semantic/bug.WAV
151.252	4.443	2	1	1.852	Semantic/cactus.WAV	Semantic/prickly.WAV
155.695	4.443	0	1	1.675	Tones/nullsilence.WAV	Tones/nullsilence.WAV
160.138	4.442	1	1	1.837	Semantic/big.WAV	Semantic/small.WAV
164.58	4.443	0	1	1.653	Tones/nullsilence.WAV	Tones/nullsilence.WAV
169.023	4.443	3	1	2.14	Semantic/stack.WAV	Semantic/chef.WAV
173.466	4.443	0	1	2.09	Tones/nullsilence.WAV	Tones/nullsilence.WAV
177.909	4.443	3	1	1.547	Semantic/headed.WAV	Semantic/thirty.WAV
182.352	4.443	0	1	1.883	Tones/nullsilence.WAV	Tones/nullsilence.WAV
186.795	4.442	1	1	1.973	Semantic/summer.WAV	Semantic/winter.WAV
191.237	4.443	4	1	1.768	Tones/400.WAV	Tones/400.WAV
195.68	4.443	0	1	1.446	Tones/nullsilence.WAV	Tones/nullsilence.WAV
200.123	4.443	1	1	1.978	Semantic/itch.WAV	Semantic/scratch.WAV
204.566	4.443	4	1	1.512	Tones/500.WAV	Tones/500.WAV
209.009	4.443	3	1	2.102	Semantic/turtle.WAV	Semantic/boom.WAV
213.452	4.442	0	1	2.107	Tones/nullsilence.WAV	Tones/nullsilence.WAV
217.894	4.443	5	1	2.313	Tones/425700850.WAV	Tones/425700775.WAV
222.337	4.443	0	1	1.822	Tones/nullsilence.WAV	Tones/nullsilence.WAV
226.78	4.443	4	1	3.232	Tones/725.WAV	Tones/650.WAV
231.223	4.443	1	1	1.847	Semantic/bunny.WAV	Semantic/rabbit.WAV
235.666	4.443	2	1	1.49	Semantic/sneeze.WAV	Semantic/cough.WAV
240.109	4.443	3	1	1.874	Semantic/secret.WAV	Semantic/tone.WAV
244.552	4.442	1	1	2.218	Semantic/fuel.WAV	Semantic/gas.WAV
248.994	4.443	0	1	1.985	Tones/nullsilence.WAV	Tones/nullsilence.WAV
253.437	4.443	3	1	1.804	Semantic/lord.WAV	Semantic/oil.WAV
257.88	4.443	2	1	1.971	Semantic/sly.WAV	Semantic/sneaky.WAV
262.323	4.443	0	1	2.453	Tones/nullsilence.WAV	Tones/nullsilence.WAV
266.766	4.443	0	1	2.226	Tones/nullsilence.WAV	Tones/nullsilence.WAV
271.209	4.442	3	1	2.569	Semantic/pirate.WAV	Semantic/bandage.WAV
275.651	4.443	4	1	2.185	Tones/550.WAV	Tones/550.WAV
280.094	4.443	0	1	2.261	Tones/nullsilence.WAV	Tones/nullsilence.WAV
284.537	4.443	5	1	2.425	Tones/525800450.WAV	Tones/525800450.WAV
288.98	4.443	2	1	1.915	Semantic/call.WAV	Semantic/phone.WAV
293.423	4.443	0	1	1.005	Tones/nullsilence.WAV	Tones/nullsilence.WAV
297.866	4.442	1	1	1.32	Semantic/handbag.WAV	Semantic/purse.WAV
302.308	4.443	2	1	1.805	Semantic/pimple.WAV	Semantic/zit.WAV
306.751	4.443	0	1	1.537	Tones/nullsilence.WAV	Tones/nullsilence.WAV
311.194	4.443	5	1	2.903	Tones/600550400.WAV	Tones/675550400.WAV
315.637	4.443	4	1	2.096	Tones/750.WAV	Tones/675.WAV
320.08	4.443	0	1	2.185	Tones/nullsilence.WAV	Tones/nullsilence.WAV
324.523	4.442	3	1	2.456	Semantic/mansion.WAV	Semantic/super.WAV
328.965	4.443	2	1	1.763	Semantic/skunk.WAV	Semantic/stink.WAV
333.408	4.443	0	1	1.888	Tones/nullsilence.WAV	Tones/nullsilence.WAV
337.851	4.443	5	1	2.245	Tones/450650850.WAV	Tones/375650850.WAV
342.294	4.443	0	1	2.29	Tones/nullsilence.WAV	Tones/nullsilence.WAV
346.737	4.443	5	1	1.995	Tones/750300700.WAV	Tones/750300700.WAV
351.18	4.443	5	1	1.477	Tones/775625825.WAV	Tones/775625825.WAV
355.623	4.442	5	1	1.503	Tones/875675500.WAV	Tones/875675500.WAV
360.065	4.443	0	1	1.947	Tones/nullsilence.WAV	Tones/nullsilence.WAV
364.508	4.443	5	1	1.379	Tones/650350575.WAV	Tones/650350575.WAV
368.951	4.443	5	0	1.158	Tones/700550775.WAV	Tones/700475775.WAV
373.394	4.443	3	1	1.797	Semantic/spell.WAV	Semantic/dim.WAV
377.837	4.443	3	1	1.851	Semantic/bacon.WAV	Semantic/wipe.WAV
382.28	4.442	4	1	2.13	Tones/475.WAV	Tones/550.WAV
386.722	4.443	5	0	1.501	Tones/825600375.WAV	Tones/825675375.WAV
391.165	4.439	0	1	2.101	Tones/nullsilence.WAV	Tones/nullsilence.WAV
