onset	duration	trial_type	accuracy	response_time	stim1_file	stim2_file
0.0	4.459	2	1	1.579	RhymeSpell/stroll.bmp	RhymeSpell/bowl1.bmp
4.459	4.443	2	1	1.606	RhymeSpell/shed.bmp	RhymeSpell/tread1.bmp
8.902	4.443	0	1	2.156	RhymeSpell/null.bmp	RhymeSpell/null.bmp
13.345	4.443	3	1	1.194	RhymeSpell/cove.bmp	RhymeSpell/prove2.bmp
17.788	4.443	0	1	0.92	RhymeSpell/null.bmp	RhymeSpell/null.bmp
22.231	4.443	3	1	1.724	RhymeSpell/climb.bmp	RhymeSpell/limb1.bmp
26.674	4.442	5	1	0.849	Symbols/m.bmp	Symbols/m2.bmp
31.116	4.443	1	1	1.026	RhymeSpell/class.bmp	RhymeSpell/mass2.bmp
35.559	4.443	0	1	0.998	RhymeSpell/null.bmp	RhymeSpell/null.bmp
40.002	4.443	1	1	1.07	RhymeSpell/brain.bmp	RhymeSpell/train2.bmp
44.445	4.443	4	1	2.405	RhymeSpell/norm.bmp	RhymeSpell/group1.bmp
48.888	4.442	2	0	1.855	RhymeSpell/caught.bmp	RhymeSpell/bought2.bmp
53.33	4.443	2	1	1.636	RhymeSpell/putt.bmp	RhymeSpell/cut2.bmp
57.773	4.443	0	1	0.881	RhymeSpell/null.bmp	RhymeSpell/null.bmp
62.216	4.443	1	1	0.986	RhymeSpell/nod.bmp	RhymeSpell/rod1.bmp
66.659	4.443	0	1	0.89	RhymeSpell/null.bmp	RhymeSpell/null.bmp
71.102	4.443	5	1	0.869	Symbols/z.bmp	Symbols/t1.bmp
75.545	4.442	0	1	0.831	RhymeSpell/null.bmp	RhymeSpell/null.bmp
79.987	4.443	3	1	1.321	RhymeSpell/hatch.bmp	RhymeSpell/watch2.bmp
84.43	4.443	6	1	1.224	Symbols/lfa.bmp	Symbols/lfa1.bmp
88.873	4.443	1	1	1.126	RhymeSpell/mark.bmp	RhymeSpell/park1.bmp
93.316	4.443	0	1	1.047	RhymeSpell/null.bmp	RhymeSpell/null.bmp
97.759	4.443	5	1	1.325	Symbols/j.bmp	Symbols/o1.bmp
102.202	4.442	5	1	0.931	Symbols/b.bmp	Symbols/b2.bmp
106.644	4.443	2	0	1.763	RhymeSpell/stuff.bmp	RhymeSpell/rough1.bmp
111.087	4.443	0	1	1.011	RhymeSpell/null.bmp	RhymeSpell/null.bmp
115.53	4.443	3	1	1.053	RhymeSpell/cheat.bmp	RhymeSpell/sweat1.bmp
119.973	4.443	0	1	0.837	RhymeSpell/null.bmp	RhymeSpell/null.bmp
124.416	4.443	6	1	1.324	Symbols/zti.bmp	Symbols/zvi1.bmp
128.859	4.443	0	1	1.009	RhymeSpell/null.bmp	RhymeSpell/null.bmp
133.302	4.442	3	1	1.147	RhymeSpell/flood.bmp	RhymeSpell/mood1.bmp
137.744	4.443	4	1	0.947	RhymeSpell/slap.bmp	RhymeSpell/tool1.bmp
142.187	4.443	5	1	0.974	Symbols/y.bmp	Symbols/y1.bmp
146.63	4.443	1	1	2.126	RhymeSpell/paste.bmp	RhymeSpell/taste1.bmp
151.073	4.443	0	1	0.92	RhymeSpell/null.bmp	RhymeSpell/null.bmp
155.516	4.443	4	1	1.766	RhymeSpell/walk.bmp	RhymeSpell/reef2.bmp
159.959	4.442	5	1	0.757	Symbols/a.bmp	Symbols/a1.bmp
164.401	4.443	0	1	1.104	RhymeSpell/null.bmp	RhymeSpell/null.bmp
168.844	4.443	4	1	1.338	RhymeSpell/trap.bmp	RhymeSpell/treat1.bmp
173.287	4.443	0	1	0.934	RhymeSpell/null.bmp	RhymeSpell/null.bmp
177.73	4.443	6	1	1.297	Symbols/drp.bmp	Symbols/drn1.bmp
182.173	4.443	0	1	1.25	RhymeSpell/null.bmp	RhymeSpell/null.bmp
186.616	4.442	1	1	1.867	RhymeSpell/sir.bmp	RhymeSpell/stir1.bmp
191.058	4.443	0	1	0.997	RhymeSpell/null.bmp	RhymeSpell/null.bmp
195.501	4.443	6	1	1.246	Symbols/ntv.bmp	Symbols/ntv2.bmp
199.944	4.443	0	1	0.894	RhymeSpell/null.bmp	RhymeSpell/null.bmp
204.387	4.443	5	1	1.828	Symbols/e.bmp	Symbols/e1.bmp
208.83	4.443	0	1	0.966	RhymeSpell/null.bmp	RhymeSpell/null.bmp
213.273	4.442	3	1	1.705	RhymeSpell/chase.bmp	RhymeSpell/phrase2.bmp
217.715	4.443	0	1	0.978	RhymeSpell/null.bmp	RhymeSpell/null.bmp
222.158	4.443	3	1	1.982	RhymeSpell/fan.bmp	RhymeSpell/swan1.bmp
226.601	4.443	0	1	1.057	RhymeSpell/null.bmp	RhymeSpell/null.bmp
231.044	4.443	2	1	2.069	RhymeSpell/cone.bmp	RhymeSpell/blown2.bmp
235.487	4.443	3	1	0.913	RhymeSpell/deaf.bmp	RhymeSpell/leaf2.bmp
239.93	4.442	4	1	1.275	RhymeSpell/drown.bmp	RhymeSpell/whose1.bmp
244.372	4.443	6	1	1.069	Symbols/gbk.bmp	Symbols/rbk2.bmp
248.815	4.443	0	0	n/a	RhymeSpell/null.bmp	RhymeSpell/null.bmp
253.258	4.443	5	1	0.814	Symbols/f.bmp	Symbols/f1.bmp
257.701	4.443	0	1	1.037	RhymeSpell/null.bmp	RhymeSpell/null.bmp
262.144	4.443	6	1	0.892	Symbols/zsj.bmp	Symbols/wsj1.bmp
266.587	4.443	0	1	1.037	RhymeSpell/null.bmp	RhymeSpell/null.bmp
271.03	4.442	1	1	1.469	RhymeSpell/chance.bmp	RhymeSpell/dance2.bmp
275.472	4.443	0	1	0.941	RhymeSpell/null.bmp	RhymeSpell/null.bmp
279.915	4.443	2	1	1.519	RhymeSpell/zone.bmp	RhymeSpell/flown1.bmp
284.358	4.443	0	1	1.004	RhymeSpell/null.bmp	RhymeSpell/null.bmp
288.801	4.443	5	1	1.435	Symbols/o.bmp	Symbols/d1.bmp
293.244	4.443	0	1	1.127	RhymeSpell/null.bmp	RhymeSpell/null.bmp
297.687	4.442	4	0	1.843	RhymeSpell/pose.bmp	RhymeSpell/brown2.bmp
302.129	4.443	2	0	1.91	RhymeSpell/mom.bmp	RhymeSpell/bomb1.bmp
306.572	4.443	6	1	1.824	Symbols/lwy.bmp	Symbols/lwy1.bmp
311.015	4.443	2	1	1.921	RhymeSpell/dose.bmp	RhymeSpell/gross1.bmp
315.458	4.443	4	1	1.11	RhymeSpell/theme.bmp	RhymeSpell/jail2.bmp
319.901	4.443	0	1	1.004	RhymeSpell/null.bmp	RhymeSpell/null.bmp
324.344	4.442	3	1	0.926	RhymeSpell/doll.bmp	RhymeSpell/toll1.bmp
328.786	4.443	4	1	1.431	RhymeSpell/thus.bmp	RhymeSpell/stay2.bmp
333.229	4.443	0	1	0.862	RhymeSpell/null.bmp	RhymeSpell/null.bmp
337.672	4.443	5	1	0.782	Symbols/k.bmp	Symbols/k1.bmp
342.115	4.443	0	1	0.965	RhymeSpell/null.bmp	RhymeSpell/null.bmp
346.558	4.443	3	1	1.394	RhymeSpell/charm.bmp	RhymeSpell/swarm1.bmp
351.001	4.442	1	1	1.22	RhymeSpell/boss.bmp	RhymeSpell/moss1.bmp
355.443	4.443	0	1	0.859	RhymeSpell/null.bmp	RhymeSpell/null.bmp
359.886	4.443	1	1	0.856	RhymeSpell/tax.bmp	RhymeSpell/wax1.bmp
364.329	4.443	6	1	1.105	Symbols/lik.bmp	Symbols/lik1.bmp
368.772	4.443	1	1	0.978	RhymeSpell/moose.bmp	RhymeSpell/goose1.bmp
373.215	4.443	1	1	1.146	RhymeSpell/hut.bmp	RhymeSpell/shut2.bmp
377.658	4.442	4	1	1.574	RhymeSpell/soup.bmp	RhymeSpell/stood1.bmp
382.1	4.443	0	1	1.667	RhymeSpell/null.bmp	RhymeSpell/null.bmp
386.543	4.443	3	1	1.047	RhymeSpell/pint.bmp	RhymeSpell/mint1.bmp
390.986	4.443	3	1	1.086	RhymeSpell/frost.bmp	RhymeSpell/post1.bmp
395.429	4.443	5	1	0.951	Symbols/g.bmp	Symbols/p2.bmp
399.872	4.443	2	1	1.368	RhymeSpell/cheer.bmp	RhymeSpell/gear1.bmp
404.315	4.443	2	1	0.85	RhymeSpell/dare.bmp	RhymeSpell/swear2.bmp
408.758	4.442	0	1	1.066	RhymeSpell/null.bmp	RhymeSpell/null.bmp
413.2	4.443	6	0	1.099	Symbols/one.bmp	Symbols/one2.bmp
417.643	4.443	3	1	1.045	RhymeSpell/card.bmp	RhymeSpell/ward2.bmp
422.086	4.443	0	1	1.672	RhymeSpell/null.bmp	RhymeSpell/null.bmp
426.529	4.443	6	1	1.125	Symbols/hvj.bmp	Symbols/hvj1.bmp
430.972	4.443	2	0	1.428	RhymeSpell/seek.bmp	RhymeSpell/beak2.bmp
435.415	4.442	3	1	0.942	RhymeSpell/five.bmp	RhymeSpell/give1.bmp
439.857	4.443	0	1	0.872	RhymeSpell/null.bmp	RhymeSpell/null.bmp
444.3	4.443	4	1	1.066	RhymeSpell/thigh.bmp	RhymeSpell/duke1.bmp
448.743	4.443	2	1	1.125	RhymeSpell/clean.bmp	RhymeSpell/screen2.bmp
453.186	4.443	6	1	0.847	Symbols/rbe.bmp	Symbols/rte1.bmp
457.629	4.443	0	1	1.061	RhymeSpell/null.bmp	RhymeSpell/null.bmp
462.072	4.442	6	0	1.724	Symbols/wug.bmp	Symbols/wyg2.bmp
466.514	4.443	5	1	1.046	Symbols/d.bmp	Symbols/r2.bmp
470.957	4.443	0	1	0.96	RhymeSpell/null.bmp	RhymeSpell/null.bmp
475.4	4.439	0	1	0.871	RhymeSpell/null.bmp	RhymeSpell/null.bmp
