onset	duration	trial_type	accuracy	response_time	stim1_file	stim2_file
0.0	4.443	4	1	0.932	Tones/450.WAV	Tones/525.WAV
4.443	4.443	2	1	0.914	Semantic/human.WAV	Semantic/person.WAV
8.886	4.442	0	1	1.077	Tones/nullsilence.WAV	Tones/nullsilence.WAV
13.328	4.443	4	1	1.817	Tones/825.WAV	Tones/750.WAV
17.771	4.443	5	1	2.439	Tones/375800525.WAV	Tones/375800525.WAV
22.214	4.443	0	1	1.267	Tones/nullsilence.WAV	Tones/nullsilence.WAV
26.657	4.443	5	1	1.136	Tones/350475625.WAV	Tones/350475625.WAV
31.1	4.443	4	1	1.236	Tones/875.WAV	Tones/875.WAV
35.543	4.443	4	1	1.363	Tones/525.WAV	Tones/525.WAV
39.986	4.442	0	1	1.254	Tones/nullsilence.WAV	Tones/nullsilence.WAV
44.428	4.443	1	0	n/a	Semantic/web.WAV	Semantic/spider.WAV
48.871	4.443	2	0	1.224	Semantic/dig.WAV	Semantic/shovel.WAV
53.314	4.443	0	1	1.208	Tones/nullsilence.WAV	Tones/nullsilence.WAV
57.757	4.443	3	1	1.557	Semantic/trade.WAV	Semantic/square.WAV
62.2	4.443	5	0	1.625	Tones/325575725.WAV	Tones/325500725.WAV
66.643	4.442	1	1	0.834	Semantic/murder.WAV	Semantic/kill.WAV
71.085	4.443	0	1	1.198	Tones/nullsilence.WAV	Tones/nullsilence.WAV
75.528	4.443	1	1	1.635	Semantic/trash.WAV	Semantic/garbage.WAV
79.971	4.443	0	1	0.334	Tones/nullsilence.WAV	Tones/nullsilence.WAV
84.414	4.443	1	1	1.208	Semantic/tall.WAV	Semantic/short.WAV
88.857	4.443	0	1	1.94	Tones/nullsilence.WAV	Tones/nullsilence.WAV
93.3	4.442	2	1	1.726	Semantic/raisin.WAV	Semantic/prune.WAV
97.742	4.443	0	1	2.813	Tones/nullsilence.WAV	Tones/nullsilence.WAV
102.185	4.443	1	1	1.194	Semantic/baggage.WAV	Semantic/luggage.WAV
106.628	4.443	0	1	2.03	Tones/nullsilence.WAV	Tones/nullsilence.WAV
111.071	4.443	2	1	2.145	Semantic/picture.WAV	Semantic/painting.WAV
115.514	4.443	2	1	1.191	Semantic/truth.WAV	Semantic/honest.WAV
119.957	4.442	0	1	1.196	Tones/nullsilence.WAV	Tones/nullsilence.WAV
124.399	4.443	3	0	1.239	Semantic/gently.WAV	Semantic/ceiling.WAV
128.842	4.443	0	1	1.364	Tones/nullsilence.WAV	Tones/nullsilence.WAV
133.285	4.443	4	1	1.837	Tones/425.WAV	Tones/425.WAV
137.728	4.443	0	1	1.094	Tones/nullsilence.WAV	Tones/nullsilence.WAV
142.171	4.443	1	0	1.517	Semantic/buyer.WAV	Semantic/seller.WAV
146.614	4.442	1	1	2.401	Semantic/insect.WAV	Semantic/bug.WAV
151.056	4.443	2	1	1.202	Semantic/cactus.WAV	Semantic/prickly.WAV
155.499	4.443	0	1	1.18	Tones/nullsilence.WAV	Tones/nullsilence.WAV
159.942	4.443	1	1	1.312	Semantic/big.WAV	Semantic/small.WAV
164.385	4.443	0	1	1.666	Tones/nullsilence.WAV	Tones/nullsilence.WAV
168.828	4.443	3	1	2.115	Semantic/stack.WAV	Semantic/chef.WAV
173.271	4.443	0	1	0.815	Tones/nullsilence.WAV	Tones/nullsilence.WAV
177.714	4.442	3	0	1.365	Semantic/headed.WAV	Semantic/thirty.WAV
182.156	4.443	0	1	1.282	Tones/nullsilence.WAV	Tones/nullsilence.WAV
186.599	4.443	1	1	2.533	Semantic/summer.WAV	Semantic/winter.WAV
191.042	4.443	4	1	1.561	Tones/400.WAV	Tones/400.WAV
195.485	4.443	0	1	1.555	Tones/nullsilence.WAV	Tones/nullsilence.WAV
199.928	4.443	1	1	1.723	Semantic/itch.WAV	Semantic/scratch.WAV
204.371	4.442	4	1	1.962	Tones/500.WAV	Tones/500.WAV
208.813	4.443	3	0	1.763	Semantic/turtle.WAV	Semantic/boom.WAV
213.256	4.443	0	1	1.245	Tones/nullsilence.WAV	Tones/nullsilence.WAV
217.699	4.443	5	1	1.664	Tones/425700850.WAV	Tones/425700775.WAV
222.142	4.443	0	1	1.286	Tones/nullsilence.WAV	Tones/nullsilence.WAV
226.585	4.443	4	0	2.003	Tones/725.WAV	Tones/650.WAV
231.028	4.442	1	1	1.19	Semantic/bunny.WAV	Semantic/rabbit.WAV
235.47	4.443	2	0	1.338	Semantic/sneeze.WAV	Semantic/cough.WAV
239.913	4.443	3	0	2.28	Semantic/secret.WAV	Semantic/tone.WAV
244.356	4.443	1	1	2.678	Semantic/fuel.WAV	Semantic/gas.WAV
248.799	4.443	0	1	0.97	Tones/nullsilence.WAV	Tones/nullsilence.WAV
253.242	4.443	3	1	1.29	Semantic/lord.WAV	Semantic/oil.WAV
257.685	4.442	2	0	2.254	Semantic/sly.WAV	Semantic/sneaky.WAV
262.127	4.443	0	1	1.456	Tones/nullsilence.WAV	Tones/nullsilence.WAV
266.57	4.443	0	1	1.264	Tones/nullsilence.WAV	Tones/nullsilence.WAV
271.013	4.443	3	1	1.337	Semantic/pirate.WAV	Semantic/bandage.WAV
275.456	4.443	4	1	1.11	Tones/550.WAV	Tones/550.WAV
279.899	4.443	0	1	1.58	Tones/nullsilence.WAV	Tones/nullsilence.WAV
284.342	4.443	5	1	0.736	Tones/525800450.WAV	Tones/525800450.WAV
288.785	4.442	2	1	2.1	Semantic/call.WAV	Semantic/phone.WAV
293.227	4.443	0	1	2.034	Tones/nullsilence.WAV	Tones/nullsilence.WAV
297.67	4.443	1	0	1.828	Semantic/handbag.WAV	Semantic/purse.WAV
302.113	4.443	2	1	1.533	Semantic/pimple.WAV	Semantic/zit.WAV
306.556	4.443	0	1	1.107	Tones/nullsilence.WAV	Tones/nullsilence.WAV
310.999	4.443	5	1	1.747	Tones/600550400.WAV	Tones/675550400.WAV
315.442	4.442	4	1	1.018	Tones/750.WAV	Tones/675.WAV
319.884	4.443	0	1	1.333	Tones/nullsilence.WAV	Tones/nullsilence.WAV
324.327	4.443	3	1	2.395	Semantic/mansion.WAV	Semantic/super.WAV
328.77	4.443	2	0	2.422	Semantic/skunk.WAV	Semantic/stink.WAV
333.213	4.443	0	1	1.365	Tones/nullsilence.WAV	Tones/nullsilence.WAV
337.656	4.443	5	0	1.12	Tones/450650850.WAV	Tones/375650850.WAV
342.099	4.442	0	1	1.615	Tones/nullsilence.WAV	Tones/nullsilence.WAV
346.541	4.443	5	1	1.837	Tones/750300700.WAV	Tones/750300700.WAV
350.984	4.443	5	1	1.008	Tones/775625825.WAV	Tones/775625825.WAV
355.427	4.443	5	1	1.588	Tones/875675500.WAV	Tones/875675500.WAV
359.87	4.443	0	1	1.125	Tones/nullsilence.WAV	Tones/nullsilence.WAV
364.313	4.443	5	1	1.548	Tones/650350575.WAV	Tones/650350575.WAV
368.756	4.442	5	0	1.703	Tones/700550775.WAV	Tones/700475775.WAV
373.198	4.443	3	1	1.814	Semantic/spell.WAV	Semantic/dim.WAV
377.641	4.443	3	1	1.274	Semantic/bacon.WAV	Semantic/wipe.WAV
382.084	4.443	4	0	1.279	Tones/475.WAV	Tones/550.WAV
386.527	4.443	5	1	2.942	Tones/825600375.WAV	Tones/825675375.WAV
390.97	4.439	0	1	1.274	Tones/nullsilence.WAV	Tones/nullsilence.WAV
