onset	duration	trial_type	accuracy	response_time	stim1_file	stim2_file
0.0	4.443	3	0	1.409	RhymeSpell/mouth.bmp	RhymeSpell/youth1.bmp
4.443	4.443	2	1	1.719	RhymeSpell/tone.bmp	RhymeSpell/known1.bmp
8.886	4.443	5	1	1.456	Symbols/t.bmp	Symbols/g2.bmp
13.329	4.443	0	1	1.353	RhymeSpell/null.bmp	RhymeSpell/null.bmp
17.772	4.443	3	0	1.657	RhymeSpell/pool.bmp	RhymeSpell/wool2.bmp
22.215	4.442	0	1	1.928	RhymeSpell/null.bmp	RhymeSpell/null.bmp
26.657	4.443	5	1	1.533	Symbols/w.bmp	Symbols/w2.bmp
31.1	4.443	5	1	2.491	Symbols/u.bmp	Symbols/u2.bmp
35.543	4.443	1	0	2.001	RhymeSpell/meal.bmp	RhymeSpell/seal1.bmp
39.986	4.443	0	1	1.265	RhymeSpell/null.bmp	RhymeSpell/null.bmp
44.429	4.443	3	0	2.588	RhymeSpell/low.bmp	RhymeSpell/vow1.bmp
48.872	4.442	6	1	1.388	Symbols/mfc.bmp	Symbols/mfc1.bmp
53.314	4.443	0	1	1.964	RhymeSpell/null.bmp	RhymeSpell/null.bmp
57.757	4.443	0	1	1.277	RhymeSpell/null.bmp	RhymeSpell/null.bmp
62.2	4.443	4	1	2.565	RhymeSpell/wrist.bmp	RhymeSpell/friend2.bmp
66.643	4.443	4	1	1.765	RhymeSpell/halt.bmp	RhymeSpell/stain2.bmp
71.086	4.443	0	1	1.347	RhymeSpell/null.bmp	RhymeSpell/null.bmp
75.529	4.442	6	0	1.596	Symbols/crs.bmp	Symbols/cre2.bmp
79.971	4.443	6	1	1.057	Symbols/pcf.bmp	Symbols/kcf2.bmp
84.414	4.443	0	1	1.786	RhymeSpell/null.bmp	RhymeSpell/null.bmp
88.857	4.443	1	1	1.169	RhymeSpell/cure.bmp	RhymeSpell/sure2.bmp
93.3	4.443	2	0	1.653	RhymeSpell/sleek.bmp	RhymeSpell/speak1.bmp
97.743	4.443	0	1	1.4	RhymeSpell/null.bmp	RhymeSpell/null.bmp
102.186	4.443	4	1	1.574	RhymeSpell/trust.bmp	RhymeSpell/chalk2.bmp
106.629	4.442	2	0	2.079	RhymeSpell/street.bmp	RhymeSpell/wheat2.bmp
111.071	4.443	0	0	n/a	RhymeSpell/null.bmp	RhymeSpell/null.bmp
115.514	4.443	6	1	1.514	Symbols/van.bmp	Symbols/van2.bmp
119.957	4.443	6	1	1.431	Symbols/jzd.bmp	Symbols/jbd2.bmp
124.4	4.443	0	1	1.682	RhymeSpell/null.bmp	RhymeSpell/null.bmp
128.843	4.443	5	0	1.93	Symbols/s.bmp	Symbols/j2.bmp
133.286	4.442	0	1	3.213	RhymeSpell/null.bmp	RhymeSpell/null.bmp
137.728	4.443	2	1	1.598	RhymeSpell/rear.bmp	RhymeSpell/mere1.bmp
142.171	4.443	1	0	2.805	RhymeSpell/crown.bmp	RhymeSpell/town2.bmp
146.614	4.443	3	0	1.528	RhymeSpell/sword.bmp	RhymeSpell/word2.bmp
151.057	4.443	6	1	1.404	Symbols/ksg.bmp	Symbols/ksj2.bmp
155.5	4.443	3	0	1.655	RhymeSpell/head.bmp	RhymeSpell/bead2.bmp
159.943	4.443	0	1	2.018	RhymeSpell/null.bmp	RhymeSpell/null.bmp
164.386	4.442	5	0	1.805	Symbols/l.bmp	Symbols/l2.bmp
168.828	4.443	0	1	1.918	RhymeSpell/null.bmp	RhymeSpell/null.bmp
173.271	4.443	6	0	1.787	Symbols/uab.bmp	Symbols/iab1.bmp
177.714	4.443	2	0	2.46	RhymeSpell/size.bmp	RhymeSpell/wise2.bmp
182.157	4.443	4	0	1.848	RhymeSpell/clash.bmp	RhymeSpell/worse1.bmp
186.6	4.443	5	1	1.606	Symbols/c.bmp	Symbols/v1.bmp
191.043	4.442	0	1	0.982	RhymeSpell/null.bmp	RhymeSpell/null.bmp
195.485	4.443	0	1	1.007	RhymeSpell/null.bmp	RhymeSpell/null.bmp
199.928	4.443	4	1	1.897	RhymeSpell/loose.bmp	RhymeSpell/drew1.bmp
204.371	4.443	0	1	2.104	RhymeSpell/null.bmp	RhymeSpell/null.bmp
208.814	4.443	4	1	2.064	RhymeSpell/yeast.bmp	RhymeSpell/tooth1.bmp
213.257	4.443	0	1	1.761	RhymeSpell/null.bmp	RhymeSpell/null.bmp
217.7	4.442	3	1	2.363	RhymeSpell/shove.bmp	RhymeSpell/wove1.bmp
222.142	4.443	5	1	1.998	Symbols/n.bmp	Symbols/n1.bmp
226.585	4.443	2	0	2.713	RhymeSpell/chair.bmp	RhymeSpell/scare1.bmp
231.028	4.443	0	1	2.645	RhymeSpell/null.bmp	RhymeSpell/null.bmp
235.471	4.443	1	0	1.664	RhymeSpell/dad.bmp	RhymeSpell/sad1.bmp
239.914	4.443	0	1	1.911	RhymeSpell/null.bmp	RhymeSpell/null.bmp
244.357	4.443	4	0	1.763	RhymeSpell/beef.bmp	RhymeSpell/keep2.bmp
248.8	4.442	3	1	1.256	RhymeSpell/broad.bmp	RhymeSpell/toad1.bmp
253.242	4.443	0	1	1.976	RhymeSpell/null.bmp	RhymeSpell/null.bmp
257.685	4.443	0	1	1.924	RhymeSpell/null.bmp	RhymeSpell/null.bmp
262.128	4.443	4	1	1.272	RhymeSpell/rail.bmp	RhymeSpell/fast1.bmp
266.571	4.443	0	1	1.049	RhymeSpell/null.bmp	RhymeSpell/null.bmp
271.014	4.443	1	1	1.719	RhymeSpell/leg.bmp	RhymeSpell/peg2.bmp
275.457	4.442	1	0	2.051	RhymeSpell/mule.bmp	RhymeSpell/rule2.bmp
279.899	4.443	6	1	1.351	Symbols/upw.bmp	Symbols/upw1.bmp
284.342	4.443	6	1	1.487	Symbols/myh.bmp	Symbols/myl1.bmp
288.785	4.443	0	1	1.794	RhymeSpell/null.bmp	RhymeSpell/null.bmp
293.228	4.443	4	1	2.462	RhymeSpell/storm.bmp	RhymeSpell/chose2.bmp
297.671	4.443	0	1	1.503	RhymeSpell/null.bmp	RhymeSpell/null.bmp
302.114	4.442	2	1	1.308	RhymeSpell/prize.bmp	RhymeSpell/rise1.bmp
306.556	4.443	0	1	2.36	RhymeSpell/null.bmp	RhymeSpell/null.bmp
310.999	4.443	1	1	1.422	RhymeSpell/fought.bmp	RhymeSpell/sought2.bmp
315.442	4.443	4	1	1.493	RhymeSpell/wage.bmp	RhymeSpell/spice1.bmp
319.885	4.443	1	1	1.915	RhymeSpell/beast.bmp	RhymeSpell/least2.bmp
324.328	4.443	5	1	1.701	Symbols/i.bmp	Symbols/i2.bmp
328.771	4.443	5	0	2.121	Symbols/r.bmp	Symbols/z2.bmp
333.214	4.442	0	1	1.532	RhymeSpell/null.bmp	RhymeSpell/null.bmp
337.656	4.443	4	1	2.738	RhymeSpell/dome.bmp	RhymeSpell/fool2.bmp
342.099	4.443	0	1	2.814	RhymeSpell/null.bmp	RhymeSpell/null.bmp
346.542	4.443	1	1	2.446	RhymeSpell/grant.bmp	RhymeSpell/slant1.bmp
350.985	4.443	1	1	1.251	RhymeSpell/numb.bmp	RhymeSpell/thumb2.bmp
355.428	4.443	1	1	1.481	RhymeSpell/chess.bmp	RhymeSpell/press2.bmp
359.871	4.442	6	0	2.495	Symbols/hio.bmp	Symbols/hio2.bmp
364.313	4.443	3	0	1.314	RhymeSpell/damp.bmp	RhymeSpell/swamp1.bmp
368.756	4.443	2	1	1.18	RhymeSpell/true.bmp	RhymeSpell/grew2.bmp
373.199	4.443	0	1	1.546	RhymeSpell/null.bmp	RhymeSpell/null.bmp
377.642	4.443	5	1	1.557	Symbols/p.bmp	Symbols/s1.bmp
382.085	4.443	3	0	1.622	RhymeSpell/shown.bmp	RhymeSpell/clown2.bmp
386.528	4.443	4	1	1.5	RhymeSpell/paint.bmp	RhymeSpell/sigh2.bmp
390.971	4.442	1	1	2.915	RhymeSpell/stone.bmp	RhymeSpell/zone1.bmp
395.413	4.443	0	1	1.602	RhymeSpell/null.bmp	RhymeSpell/null.bmp
399.856	4.443	6	1	3.19	Symbols/mey.bmp	Symbols/mey2.bmp
404.299	4.443	0	1	1.472	RhymeSpell/null.bmp	RhymeSpell/null.bmp
408.742	4.443	0	1	0.894	RhymeSpell/null.bmp	RhymeSpell/null.bmp
413.185	4.443	2	0	1.485	RhymeSpell/spear.bmp	RhymeSpell/sphere2.bmp
417.628	4.442	0	1	2.346	RhymeSpell/null.bmp	RhymeSpell/null.bmp
422.07	4.443	6	0	1.38	Symbols/odt.bmp	Symbols/odt2.bmp
426.513	4.443	2	0	1.851	RhymeSpell/pro.bmp	RhymeSpell/mow2.bmp
430.956	4.443	0	1	1.629	RhymeSpell/null.bmp	RhymeSpell/null.bmp
435.399	4.443	4	0	1.328	RhymeSpell/home.bmp	RhymeSpell/form2.bmp
439.842	4.443	3	0	1.783	RhymeSpell/smooth.bmp	RhymeSpell/booth2.bmp
444.285	4.442	0	1	1.462	RhymeSpell/null.bmp	RhymeSpell/null.bmp
448.727	4.443	1	0	n/a	RhymeSpell/grief.bmp	RhymeSpell/thief1.bmp
453.17	4.443	2	1	1.49	RhymeSpell/top.bmp	RhymeSpell/swap2.bmp
457.613	4.443	5	1	2.049	Symbols/v.bmp	Symbols/h1.bmp
462.056	4.443	0	1	1.776	RhymeSpell/null.bmp	RhymeSpell/null.bmp
466.499	4.443	5	1	2.079	Symbols/h.bmp	Symbols/c2.bmp
470.942	4.443	0	1	1.981	RhymeSpell/null.bmp	RhymeSpell/null.bmp
475.385	4.439	4	1	2.28	RhymeSpell/dream.bmp	RhymeSpell/blame1.bmp
