onset	duration	trial_type	accuracy	response_time	stim1_file	stim2_file
0.0	4.475	2	1	1.303	RhymeSpell/crawl.bmp	RhymeSpell/ball1.bmp
4.475	4.443	2	1	1.554	RhymeSpell/moan.bmp	RhymeSpell/bone1.bmp
8.918	4.443	0	1	1.987	RhymeSpell/null.bmp	RhymeSpell/null.bmp
13.361	4.443	3	0	1.981	RhymeSpell/harm.bmp	RhymeSpell/warm2.bmp
17.804	4.442	0	1	1.747	RhymeSpell/null.bmp	RhymeSpell/null.bmp
22.246	4.443	3	1	1.608	RhymeSpell/dull.bmp	RhymeSpell/pull2.bmp
26.689	4.443	5	1	1.352	Symbols/m.bmp	Symbols/m2.bmp
31.132	4.443	1	1	1.639	RhymeSpell/dime.bmp	RhymeSpell/lime1.bmp
35.575	4.443	0	1	1.745	RhymeSpell/null.bmp	RhymeSpell/null.bmp
40.018	4.443	1	0	2.218	RhymeSpell/thread.bmp	RhymeSpell/dread2.bmp
44.461	4.442	4	1	2.034	RhymeSpell/dash.bmp	RhymeSpell/brow1.bmp
48.903	4.443	2	0	2.212	RhymeSpell/though.bmp	RhymeSpell/blow2.bmp
53.346	4.443	2	1	1.553	RhymeSpell/greet.bmp	RhymeSpell/neat1.bmp
57.789	4.443	0	1	1.618	RhymeSpell/null.bmp	RhymeSpell/null.bmp
62.232	4.443	1	1	1.978	RhymeSpell/mad.bmp	RhymeSpell/pad2.bmp
66.675	4.443	0	1	1.593	RhymeSpell/null.bmp	RhymeSpell/null.bmp
71.118	4.442	5	0	n/a	Symbols/z.bmp	Symbols/t1.bmp
75.56	4.443	0	1	2.58	RhymeSpell/null.bmp	RhymeSpell/null.bmp
80.003	4.443	3	0	1.505	RhymeSpell/tough.bmp	RhymeSpell/cough2.bmp
84.446	4.443	6	0	2.288	Symbols/lfa.bmp	Symbols/lfa1.bmp
88.889	4.443	1	1	2.343	RhymeSpell/drum.bmp	RhymeSpell/gum1.bmp
93.332	4.443	0	1	1.316	RhymeSpell/null.bmp	RhymeSpell/null.bmp
97.775	4.442	5	1	1.222	Symbols/j.bmp	Symbols/o1.bmp
102.217	4.443	5	1	1.191	Symbols/b.bmp	Symbols/b2.bmp
106.66	4.443	2	0	2.069	RhymeSpell/comb.bmp	RhymeSpell/chrome2.bmp
111.103	4.443	0	1	1.75	RhymeSpell/null.bmp	RhymeSpell/null.bmp
115.546	4.443	3	1	1.75	RhymeSpell/couch.bmp	RhymeSpell/touch1.bmp
119.989	4.443	0	1	1.591	RhymeSpell/null.bmp	RhymeSpell/null.bmp
124.432	4.443	6	1	1.322	Symbols/zti.bmp	Symbols/zvi1.bmp
128.875	4.442	0	1	1.685	RhymeSpell/null.bmp	RhymeSpell/null.bmp
133.317	4.443	3	0	1.595	RhymeSpell/gull.bmp	RhymeSpell/bull2.bmp
137.76	4.443	4	1	2.829	RhymeSpell/goes.bmp	RhymeSpell/lap2.bmp
142.203	4.443	5	1	1.4	Symbols/y.bmp	Symbols/y1.bmp
146.646	4.443	1	0	1.716	RhymeSpell/pay.bmp	RhymeSpell/play2.bmp
151.089	4.443	0	1	1.765	RhymeSpell/null.bmp	RhymeSpell/null.bmp
155.532	4.442	4	1	2.403	RhymeSpell/staff.bmp	RhymeSpell/gain2.bmp
159.974	4.443	5	1	2.16	Symbols/a.bmp	Symbols/a1.bmp
164.417	4.443	0	1	1.553	RhymeSpell/null.bmp	RhymeSpell/null.bmp
168.86	4.443	4	1	1.718	RhymeSpell/scale.bmp	RhymeSpell/fly2.bmp
173.303	4.443	0	1	2.431	RhymeSpell/null.bmp	RhymeSpell/null.bmp
177.746	4.443	6	0	n/a	Symbols/drp.bmp	Symbols/drn1.bmp
182.189	4.442	0	1	1.769	RhymeSpell/null.bmp	RhymeSpell/null.bmp
186.631	4.443	1	1	1.463	RhymeSpell/hint.bmp	RhymeSpell/print1.bmp
191.074	4.443	0	1	3.212	RhymeSpell/null.bmp	RhymeSpell/null.bmp
195.517	4.443	6	0	3.133	Symbols/ntv.bmp	Symbols/ntv2.bmp
199.96	4.443	0	1	1.911	RhymeSpell/null.bmp	RhymeSpell/null.bmp
204.403	4.443	5	1	1.503	Symbols/e.bmp	Symbols/e1.bmp
208.846	4.442	0	1	1.1	RhymeSpell/null.bmp	RhymeSpell/null.bmp
213.288	4.443	3	0	1.768	RhymeSpell/foot.bmp	RhymeSpell/hoot1.bmp
217.731	4.443	0	1	2.563	RhymeSpell/null.bmp	RhymeSpell/null.bmp
222.174	4.443	3	0	2.238	RhymeSpell/glove.bmp	RhymeSpell/drove2.bmp
226.617	4.443	0	1	2.259	RhymeSpell/null.bmp	RhymeSpell/null.bmp
231.06	4.443	2	0	1.324	RhymeSpell/trade.bmp	RhymeSpell/paid2.bmp
235.503	4.442	3	1	2.243	RhymeSpell/moth.bmp	RhymeSpell/both2.bmp
239.945	4.443	4	1	2.438	RhymeSpell/start.bmp	RhymeSpell/pure2.bmp
244.388	4.443	6	1	1.446	Symbols/gbk.bmp	Symbols/rbk2.bmp
248.831	4.443	0	1	1.562	RhymeSpell/null.bmp	RhymeSpell/null.bmp
253.274	4.443	5	0	n/a	Symbols/f.bmp	Symbols/f1.bmp
257.717	4.443	0	1	1.263	RhymeSpell/null.bmp	RhymeSpell/null.bmp
262.16	4.443	6	1	1.344	Symbols/zsj.bmp	Symbols/wsj1.bmp
266.603	4.442	0	1	1.386	RhymeSpell/null.bmp	RhymeSpell/null.bmp
271.045	4.443	1	1	1.45	RhymeSpell/wall.bmp	RhymeSpell/tall1.bmp
275.488	4.443	0	1	1.725	RhymeSpell/null.bmp	RhymeSpell/null.bmp
279.931	4.443	2	0	1.516	RhymeSpell/glad.bmp	RhymeSpell/plaid1.bmp
284.374	4.443	0	1	1.584	RhymeSpell/null.bmp	RhymeSpell/null.bmp
288.817	4.443	5	1	1.038	Symbols/o.bmp	Symbols/d1.bmp
293.26	4.442	0	1	1.952	RhymeSpell/null.bmp	RhymeSpell/null.bmp
297.702	4.443	4	0	n/a	RhymeSpell/strut.bmp	RhymeSpell/glint2.bmp
302.145	4.443	2	1	1.271	RhymeSpell/sheet.bmp	RhymeSpell/heat1.bmp
306.588	4.443	6	1	1.503	Symbols/lwy.bmp	Symbols/lwy1.bmp
311.031	4.443	2	0	1.636	RhymeSpell/whom.bmp	RhymeSpell/womb1.bmp
315.474	4.443	4	1	1.72	RhymeSpell/spare.bmp	RhymeSpell/cow1.bmp
319.917	4.442	0	1	2.185	RhymeSpell/null.bmp	RhymeSpell/null.bmp
324.359	4.443	3	1	2.729	RhymeSpell/fat.bmp	RhymeSpell/swat2.bmp
328.802	4.443	4	1	3.144	RhymeSpell/team.bmp	RhymeSpell/brief2.bmp
333.245	4.443	0	1	1.402	RhymeSpell/null.bmp	RhymeSpell/null.bmp
337.688	4.443	5	1	1.234	Symbols/k.bmp	Symbols/k1.bmp
342.131	4.443	0	1	1.915	RhymeSpell/null.bmp	RhymeSpell/null.bmp
346.574	4.442	3	0	2.516	RhymeSpell/bad.bmp	RhymeSpell/wad2.bmp
351.016	4.443	1	0	n/a	RhymeSpell/glare.bmp	RhymeSpell/share1.bmp
355.459	4.443	0	1	1.579	RhymeSpell/null.bmp	RhymeSpell/null.bmp
359.902	4.443	1	1	2.03	RhymeSpell/cold.bmp	RhymeSpell/told1.bmp
364.345	4.443	6	0	n/a	Symbols/lik.bmp	Symbols/lik1.bmp
368.788	4.443	1	0	n/a	RhymeSpell/dawn.bmp	RhymeSpell/lawn1.bmp
373.231	4.442	1	1	2.418	RhymeSpell/broke.bmp	RhymeSpell/joke1.bmp
377.673	4.443	4	0	2.064	RhymeSpell/craft.bmp	RhymeSpell/young1.bmp
382.116	4.443	0	1	1.242	RhymeSpell/null.bmp	RhymeSpell/null.bmp
386.559	4.443	3	0	n/a	RhymeSpell/hull.bmp	RhymeSpell/full1.bmp
391.002	4.443	3	0	n/a	RhymeSpell/freight.bmp	RhymeSpell/height2.bmp
395.445	4.443	5	1	1.445	Symbols/g.bmp	Symbols/p2.bmp
399.888	4.443	2	0	2.996	RhymeSpell/stool.bmp	RhymeSpell/ghoul1.bmp
404.331	4.442	2	1	2.598	RhymeSpell/hoe.bmp	RhymeSpell/throw2.bmp
408.773	4.443	0	1	2.788	RhymeSpell/null.bmp	RhymeSpell/null.bmp
413.216	4.443	6	0	n/a	Symbols/one.bmp	Symbols/one2.bmp
417.659	4.443	3	1	2.487	RhymeSpell/cost.bmp	RhymeSpell/ghost2.bmp
422.102	4.443	0	1	1.171	RhymeSpell/null.bmp	RhymeSpell/null.bmp
426.545	4.443	6	1	1.126	Symbols/hvj.bmp	Symbols/hvj1.bmp
430.988	4.442	2	1	2.476	RhymeSpell/gas.bmp	RhymeSpell/pass1.bmp
435.43	4.443	3	0	1.583	RhymeSpell/blood.bmp	RhymeSpell/wood1.bmp
439.873	4.443	0	1	2.075	RhymeSpell/null.bmp	RhymeSpell/null.bmp
444.316	4.443	4	1	2.84	RhymeSpell/vend.bmp	RhymeSpell/space1.bmp
448.759	4.443	2	0	n/a	RhymeSpell/choose.bmp	RhymeSpell/lose2.bmp
453.202	4.443	6	1	1.518	Symbols/rbe.bmp	Symbols/rte1.bmp
457.645	4.442	0	1	1.607	RhymeSpell/null.bmp	RhymeSpell/null.bmp
462.087	4.443	6	1	1.685	Symbols/wug.bmp	Symbols/wyg2.bmp
466.53	4.443	5	1	2.347	Symbols/d.bmp	Symbols/r2.bmp
470.973	4.443	0	0	n/a	RhymeSpell/null.bmp	RhymeSpell/null.bmp
475.416	4.439	0	1	1.565	RhymeSpell/null.bmp	RhymeSpell/null.bmp
