onset	duration	trial_type	accuracy	response_time	stim1_file	stim2_file
0.0	4.443	3	1	1.935	RhymeSpell/mouth.bmp	RhymeSpell/youth1.bmp
4.443	4.442	2	0	1.705	RhymeSpell/tone.bmp	RhymeSpell/known1.bmp
8.885	4.443	5	1	1.609	Symbols/t.bmp	Symbols/g2.bmp
13.328	4.443	0	0	2.202	RhymeSpell/null.bmp	RhymeSpell/null.bmp
17.771	4.443	3	0	1.173	RhymeSpell/pool.bmp	RhymeSpell/wool2.bmp
22.214	4.443	0	1	3.086	RhymeSpell/null.bmp	RhymeSpell/null.bmp
26.657	4.443	5	1	1.249	Symbols/w.bmp	Symbols/w2.bmp
31.1	4.443	5	1	1.308	Symbols/u.bmp	Symbols/u2.bmp
35.543	4.442	1	1	2.188	RhymeSpell/meal.bmp	RhymeSpell/seal1.bmp
39.985	4.443	0	1	1.923	RhymeSpell/null.bmp	RhymeSpell/null.bmp
44.428	4.443	3	0	2.091	RhymeSpell/low.bmp	RhymeSpell/vow1.bmp
48.871	4.443	6	1	1.639	Symbols/mfc.bmp	Symbols/mfc1.bmp
53.314	4.443	0	1	2.061	RhymeSpell/null.bmp	RhymeSpell/null.bmp
57.757	4.443	0	1	2.223	RhymeSpell/null.bmp	RhymeSpell/null.bmp
62.2	4.442	4	1	2.184	RhymeSpell/wrist.bmp	RhymeSpell/friend2.bmp
66.642	4.443	4	0	2.795	RhymeSpell/halt.bmp	RhymeSpell/stain2.bmp
71.085	4.443	0	1	2.606	RhymeSpell/null.bmp	RhymeSpell/null.bmp
75.528	4.443	6	1	1.819	Symbols/crs.bmp	Symbols/cre2.bmp
79.971	4.443	6	0	1.956	Symbols/pcf.bmp	Symbols/kcf2.bmp
84.414	4.443	0	1	2.611	RhymeSpell/null.bmp	RhymeSpell/null.bmp
88.857	4.442	1	1	2.153	RhymeSpell/cure.bmp	RhymeSpell/sure2.bmp
93.299	4.443	2	1	1.701	RhymeSpell/sleek.bmp	RhymeSpell/speak1.bmp
97.742	4.443	0	1	2.47	RhymeSpell/null.bmp	RhymeSpell/null.bmp
102.185	4.443	4	0	1.506	RhymeSpell/trust.bmp	RhymeSpell/chalk2.bmp
106.628	4.443	2	1	2.367	RhymeSpell/street.bmp	RhymeSpell/wheat2.bmp
111.071	4.443	0	1	1.968	RhymeSpell/null.bmp	RhymeSpell/null.bmp
115.514	4.442	6	1	1.829	Symbols/van.bmp	Symbols/van2.bmp
119.956	4.443	6	1	1.382	Symbols/jzd.bmp	Symbols/jbd2.bmp
124.399	4.443	0	1	1.408	RhymeSpell/null.bmp	RhymeSpell/null.bmp
128.842	4.443	5	0	2.029	Symbols/s.bmp	Symbols/j2.bmp
133.285	4.443	0	1	1.588	RhymeSpell/null.bmp	RhymeSpell/null.bmp
137.728	4.443	2	1	2.652	RhymeSpell/rear.bmp	RhymeSpell/mere1.bmp
142.171	4.442	1	1	2.135	RhymeSpell/crown.bmp	RhymeSpell/town2.bmp
146.613	4.443	3	1	1.506	RhymeSpell/sword.bmp	RhymeSpell/word2.bmp
151.056	4.443	6	1	1.484	Symbols/ksg.bmp	Symbols/ksj2.bmp
155.499	4.443	3	0	2.927	RhymeSpell/head.bmp	RhymeSpell/bead2.bmp
159.942	4.443	0	1	2.365	RhymeSpell/null.bmp	RhymeSpell/null.bmp
164.385	4.443	5	1	1.377	Symbols/l.bmp	Symbols/l2.bmp
168.828	4.442	0	1	2.53	RhymeSpell/null.bmp	RhymeSpell/null.bmp
173.27	4.443	6	0	1.318	Symbols/uab.bmp	Symbols/iab1.bmp
177.713	4.443	2	1	1.414	RhymeSpell/size.bmp	RhymeSpell/wise2.bmp
182.156	4.443	4	0	0.281	RhymeSpell/clash.bmp	RhymeSpell/worse1.bmp
186.599	4.443	5	1	1.437	Symbols/c.bmp	Symbols/v1.bmp
191.042	4.443	0	1	1.656	RhymeSpell/null.bmp	RhymeSpell/null.bmp
195.485	4.443	0	1	1.473	RhymeSpell/null.bmp	RhymeSpell/null.bmp
199.928	4.442	4	1	1.672	RhymeSpell/loose.bmp	RhymeSpell/drew1.bmp
204.37	4.443	0	1	1.486	RhymeSpell/null.bmp	RhymeSpell/null.bmp
208.813	4.443	4	0	2.271	RhymeSpell/yeast.bmp	RhymeSpell/tooth1.bmp
213.256	4.443	0	1	3.141	RhymeSpell/null.bmp	RhymeSpell/null.bmp
217.699	4.443	3	0	1.367	RhymeSpell/shove.bmp	RhymeSpell/wove1.bmp
222.142	4.443	5	1	2.187	Symbols/n.bmp	Symbols/n1.bmp
226.585	4.442	2	1	2.197	RhymeSpell/chair.bmp	RhymeSpell/scare1.bmp
231.027	4.443	0	0	2.664	RhymeSpell/null.bmp	RhymeSpell/null.bmp
235.47	4.443	1	1	1.835	RhymeSpell/dad.bmp	RhymeSpell/sad1.bmp
239.913	4.443	0	1	1.815	RhymeSpell/null.bmp	RhymeSpell/null.bmp
244.356	4.443	4	0	3.138	RhymeSpell/beef.bmp	RhymeSpell/keep2.bmp
248.799	4.443	3	1	1.825	RhymeSpell/broad.bmp	RhymeSpell/toad1.bmp
253.242	4.442	0	1	1.674	RhymeSpell/null.bmp	RhymeSpell/null.bmp
257.684	4.443	0	1	0.458	RhymeSpell/null.bmp	RhymeSpell/null.bmp
262.127	4.443	4	0	1.764	RhymeSpell/rail.bmp	RhymeSpell/fast1.bmp
266.57	4.443	0	1	1.723	RhymeSpell/null.bmp	RhymeSpell/null.bmp
271.013	4.443	1	0	2.471	RhymeSpell/leg.bmp	RhymeSpell/peg2.bmp
275.456	4.443	1	0	n/a	RhymeSpell/mule.bmp	RhymeSpell/rule2.bmp
279.899	4.442	6	1	1.451	Symbols/upw.bmp	Symbols/upw1.bmp
284.341	4.443	6	1	1.688	Symbols/myh.bmp	Symbols/myl1.bmp
288.784	4.443	0	1	1.414	RhymeSpell/null.bmp	RhymeSpell/null.bmp
293.227	4.443	4	0	1.426	RhymeSpell/storm.bmp	RhymeSpell/chose2.bmp
297.67	4.443	0	1	3.187	RhymeSpell/null.bmp	RhymeSpell/null.bmp
302.113	4.443	2	1	1.28	RhymeSpell/prize.bmp	RhymeSpell/rise1.bmp
306.556	4.442	0	1	2.246	RhymeSpell/null.bmp	RhymeSpell/null.bmp
310.998	4.443	1	0	2.158	RhymeSpell/fought.bmp	RhymeSpell/sought2.bmp
315.441	4.443	4	0	1.841	RhymeSpell/wage.bmp	RhymeSpell/spice1.bmp
319.884	4.443	1	1	1.641	RhymeSpell/beast.bmp	RhymeSpell/least2.bmp
324.327	4.443	5	1	1.457	Symbols/i.bmp	Symbols/i2.bmp
328.77	4.443	5	1	2.555	Symbols/r.bmp	Symbols/z2.bmp
333.213	4.443	0	1	1.809	RhymeSpell/null.bmp	RhymeSpell/null.bmp
337.656	4.442	4	0	2.194	RhymeSpell/dome.bmp	RhymeSpell/fool2.bmp
342.098	4.443	0	0	n/a	RhymeSpell/null.bmp	RhymeSpell/null.bmp
346.541	4.443	1	1	3.052	RhymeSpell/grant.bmp	RhymeSpell/slant1.bmp
350.984	4.443	1	1	1.923	RhymeSpell/numb.bmp	RhymeSpell/thumb2.bmp
355.427	4.443	1	1	2.173	RhymeSpell/chess.bmp	RhymeSpell/press2.bmp
359.87	4.443	6	1	1.349	Symbols/hio.bmp	Symbols/hio2.bmp
364.313	4.442	3	0	n/a	RhymeSpell/damp.bmp	RhymeSpell/swamp1.bmp
368.755	4.443	2	1	1.439	RhymeSpell/true.bmp	RhymeSpell/grew2.bmp
373.198	4.443	0	1	2.636	RhymeSpell/null.bmp	RhymeSpell/null.bmp
377.641	4.443	5	1	1.445	Symbols/p.bmp	Symbols/s1.bmp
382.084	4.443	3	0	1.319	RhymeSpell/shown.bmp	RhymeSpell/clown2.bmp
386.527	4.443	4	1	2.196	RhymeSpell/paint.bmp	RhymeSpell/sigh2.bmp
390.97	4.442	1	1	1.489	RhymeSpell/stone.bmp	RhymeSpell/zone1.bmp
395.412	4.443	0	1	1.706	RhymeSpell/null.bmp	RhymeSpell/null.bmp
399.855	4.443	6	1	1.419	Symbols/mey.bmp	Symbols/mey2.bmp
404.298	4.443	0	0	n/a	RhymeSpell/null.bmp	RhymeSpell/null.bmp
408.741	4.443	0	1	0.967	RhymeSpell/null.bmp	RhymeSpell/null.bmp
413.184	4.443	2	1	1.237	RhymeSpell/spear.bmp	RhymeSpell/sphere2.bmp
417.627	4.442	0	1	1.778	RhymeSpell/null.bmp	RhymeSpell/null.bmp
422.069	4.443	6	1	1.313	Symbols/odt.bmp	Symbols/odt2.bmp
426.512	4.443	2	1	1.889	RhymeSpell/pro.bmp	RhymeSpell/mow2.bmp
430.955	4.443	0	1	1.16	RhymeSpell/null.bmp	RhymeSpell/null.bmp
435.398	4.443	4	0	2.14	RhymeSpell/home.bmp	RhymeSpell/form2.bmp
439.841	4.443	3	0	1.176	RhymeSpell/smooth.bmp	RhymeSpell/booth2.bmp
444.284	4.442	0	1	2.272	RhymeSpell/null.bmp	RhymeSpell/null.bmp
448.726	4.443	1	1	1.761	RhymeSpell/grief.bmp	RhymeSpell/thief1.bmp
453.169	4.443	2	1	1.495	RhymeSpell/top.bmp	RhymeSpell/swap2.bmp
457.612	4.443	5	0	2.064	Symbols/v.bmp	Symbols/h1.bmp
462.055	4.443	0	1	1.723	RhymeSpell/null.bmp	RhymeSpell/null.bmp
466.498	4.443	5	1	2.24	Symbols/h.bmp	Symbols/c2.bmp
470.941	4.443	0	1	1.68	RhymeSpell/null.bmp	RhymeSpell/null.bmp
475.384	4.438	4	1	2.206	RhymeSpell/dream.bmp	RhymeSpell/blame1.bmp
