onset	duration	trial_type	accuracy	response_time	stim1_file	stim2_file
0.0	4.443	2	1	1.146	RhymeSpell/crawl.WAV	RhymeSpell/ball.WAV
4.443	4.443	2	1	2.824	RhymeSpell/moan.WAV	RhymeSpell/bone.WAV
8.886	4.443	0	1	1.674	Tones/nullsilence.WAV	Tones/nullsilence.WAV
13.329	4.442	3	1	1.266	RhymeSpell/harm.WAV	RhymeSpell/warm.WAV
17.771	4.443	0	1	1.709	Tones/nullsilence.WAV	Tones/nullsilence.WAV
22.214	4.443	3	1	1.589	RhymeSpell/dull.WAV	RhymeSpell/pull.WAV
26.657	4.443	5	1	2.755	Tones/700.WAV	Tones/700.WAV
31.1	4.443	1	1	0.919	RhymeSpell/dime.WAV	RhymeSpell/lime.WAV
35.543	4.443	0	1	1.146	Tones/nullsilence.WAV	Tones/nullsilence.WAV
39.986	4.443	1	0	2.01	RhymeSpell/thread.WAV	RhymeSpell/dread.WAV
44.429	4.442	4	1	2.489	RhymeSpell/dash.WAV	RhymeSpell/brow.WAV
48.871	4.443	2	1	0.989	RhymeSpell/though.WAV	RhymeSpell/blow.WAV
53.314	4.443	2	0	2.498	RhymeSpell/greet.WAV	RhymeSpell/neat.WAV
57.757	4.443	0	1	1.468	Tones/nullsilence.WAV	Tones/nullsilence.WAV
62.2	4.443	1	1	2.159	RhymeSpell/mad.WAV	RhymeSpell/pad.WAV
66.643	4.443	0	1	0.762	Tones/nullsilence.WAV	Tones/nullsilence.WAV
71.086	4.442	5	0	1.898	Tones/450.WAV	Tones/525.WAV
75.528	4.443	0	1	2.517	Tones/nullsilence.WAV	Tones/nullsilence.WAV
79.971	4.443	3	1	1.868	RhymeSpell/tough.WAV	RhymeSpell/cough.WAV
84.414	4.443	6	1	1.593	Tones/350475625.WAV	Tones/350475625.WAV
88.857	4.443	1	1	2.027	RhymeSpell/drum.WAV	RhymeSpell/gum.WAV
93.3	4.443	0	1	1.299	Tones/nullsilence.WAV	Tones/nullsilence.WAV
97.743	4.442	5	0	2.122	Tones/825.WAV	Tones/750.WAV
102.185	4.443	5	0	0.946	Tones/875.WAV	Tones/875.WAV
106.628	4.443	2	1	2.002	RhymeSpell/comb.WAV	RhymeSpell/chrome.WAV
111.071	4.443	0	1	0.105	Tones/nullsilence.WAV	Tones/nullsilence.WAV
115.514	4.443	3	1	1.272	RhymeSpell/couch.WAV	RhymeSpell/touch.WAV
119.957	4.443	0	1	1.934	Tones/nullsilence.WAV	Tones/nullsilence.WAV
124.4	4.442	6	0	1.298	Tones/325575725.WAV	Tones/325500725.WAV
128.842	4.443	0	1	1.994	Tones/nullsilence.WAV	Tones/nullsilence.WAV
133.285	4.443	3	1	2.524	RhymeSpell/gull.WAV	RhymeSpell/bull.WAV
137.728	4.443	4	1	0.963	RhymeSpell/goes.WAV	RhymeSpell/lap.WAV
142.171	4.443	5	1	0.376	Tones/525.WAV	Tones/525.WAV
146.614	4.443	1	1	1.349	RhymeSpell/pay.WAV	RhymeSpell/play.WAV
151.057	4.443	0	1	1.806	Tones/nullsilence.WAV	Tones/nullsilence.WAV
155.5	4.442	4	0	1.945	RhymeSpell/staff.WAV	RhymeSpell/gain.WAV
159.942	4.443	5	1	2.287	Tones/425.WAV	Tones/425.WAV
164.385	4.443	0	1	1.308	Tones/nullsilence.WAV	Tones/nullsilence.WAV
168.828	4.443	4	0	n/a	RhymeSpell/scale.WAV	RhymeSpell/fly.WAV
173.271	4.443	0	1	1.761	Tones/nullsilence.WAV	Tones/nullsilence.WAV
177.714	4.443	6	0	1.852	Tones/425700850.WAV	Tones/425700775.WAV
182.157	4.442	0	1	1.514	Tones/nullsilence.WAV	Tones/nullsilence.WAV
186.599	4.443	1	1	2.897	RhymeSpell/hint.WAV	RhymeSpell/print.WAV
191.042	4.443	0	1	1.412	Tones/nullsilence.WAV	Tones/nullsilence.WAV
195.485	4.443	6	1	1.345	Tones/525800450.WAV	Tones/525800450.WAV
199.928	4.443	0	0	n/a	Tones/nullsilence.WAV	Tones/nullsilence.WAV
204.371	4.443	5	1	0.745	Tones/400.WAV	Tones/400.WAV
208.814	4.442	0	0	n/a	Tones/nullsilence.WAV	Tones/nullsilence.WAV
213.256	4.443	3	1	1.406	RhymeSpell/foot.WAV	RhymeSpell/hoot.WAV
217.699	4.443	0	1	2.849	Tones/nullsilence.WAV	Tones/nullsilence.WAV
222.142	4.443	3	0	1.899	RhymeSpell/glove.WAV	RhymeSpell/drove.WAV
226.585	4.443	0	1	2.825	Tones/nullsilence.WAV	Tones/nullsilence.WAV
231.028	4.443	2	1	1.877	RhymeSpell/trade.WAV	RhymeSpell/paid.WAV
235.471	4.442	3	0	2.675	RhymeSpell/moth.WAV	RhymeSpell/both.WAV
239.913	4.443	4	1	1.582	RhymeSpell/start.WAV	RhymeSpell/pure.WAV
244.356	4.443	6	0	n/a	Tones/600550400.WAV	Tones/675550400.WAV
248.799	4.443	0	1	1.447	Tones/nullsilence.WAV	Tones/nullsilence.WAV
253.242	4.443	5	1	1.086	Tones/500.WAV	Tones/500.WAV
257.685	4.443	0	1	1.418	Tones/nullsilence.WAV	Tones/nullsilence.WAV
262.128	4.443	6	0	2.214	Tones/450650850.WAV	Tones/375650850.WAV
266.571	4.442	0	0	n/a	Tones/nullsilence.WAV	Tones/nullsilence.WAV
271.013	4.443	1	1	0.944	RhymeSpell/wall.WAV	RhymeSpell/tall.WAV
275.456	4.443	0	1	2.576	Tones/nullsilence.WAV	Tones/nullsilence.WAV
279.899	4.443	2	1	2.448	RhymeSpell/glad.WAV	RhymeSpell/plaid.WAV
284.342	4.459	0	1	2.045	Tones/nullsilence.WAV	Tones/nullsilence.WAV
288.801	4.443	5	1	0.886	Tones/725.WAV	Tones/650.WAV
293.244	4.443	0	1	1.364	Tones/nullsilence.WAV	Tones/nullsilence.WAV
297.687	4.443	4	1	1.412	RhymeSpell/strut.WAV	RhymeSpell/glint.WAV
302.13	4.442	2	0	n/a	RhymeSpell/sheet.WAV	RhymeSpell/heat.WAV
306.572	4.443	6	1	0.976	Tones/750300700.WAV	Tones/750300700.WAV
311.015	4.443	2	1	2.746	RhymeSpell/whom.WAV	RhymeSpell/womb.WAV
315.458	4.443	4	1	2.639	RhymeSpell/spare.WAV	RhymeSpell/cow.WAV
319.901	4.443	0	1	1.092	Tones/nullsilence.WAV	Tones/nullsilence.WAV
324.344	4.443	3	1	1.235	RhymeSpell/fat.WAV	RhymeSpell/swat.WAV
328.787	4.442	4	0	1.594	RhymeSpell/team.WAV	RhymeSpell/brief.WAV
333.229	4.443	0	1	1.358	Tones/nullsilence.WAV	Tones/nullsilence.WAV
337.672	4.443	5	1	0.777	Tones/550.WAV	Tones/550.WAV
342.115	4.443	0	1	0.573	Tones/nullsilence.WAV	Tones/nullsilence.WAV
346.558	4.443	3	1	1.664	RhymeSpell/bad.WAV	RhymeSpell/wad.WAV
351.001	4.443	1	1	1.127	RhymeSpell/glare.WAV	RhymeSpell/share.WAV
355.444	4.442	0	1	1.892	Tones/nullsilence.WAV	Tones/nullsilence.WAV
359.886	4.443	1	1	1.105	RhymeSpell/cold.WAV	RhymeSpell/told.WAV
364.329	4.443	6	1	2.024	Tones/775625825.WAV	Tones/775625825.WAV
368.772	4.443	1	1	1.619	RhymeSpell/dawn.WAV	RhymeSpell/lawn.WAV
373.215	4.443	1	1	1.507	RhymeSpell/broke.WAV	RhymeSpell/joke.WAV
377.658	4.443	4	1	1.238	RhymeSpell/craft.WAV	RhymeSpell/young.WAV
382.101	4.442	0	1	0.066	Tones/nullsilence.WAV	Tones/nullsilence.WAV
386.543	4.443	3	1	1.792	RhymeSpell/hull.WAV	RhymeSpell/full.WAV
390.986	4.443	3	1	1.304	RhymeSpell/freight.WAV	RhymeSpell/height.WAV
395.429	4.443	5	0	0.915	Tones/750.WAV	Tones/675.WAV
399.872	4.443	2	1	3.097	RhymeSpell/stool.WAV	RhymeSpell/ghoul.WAV
404.315	4.443	2	0	0.896	RhymeSpell/hoe.WAV	RhymeSpell/throw.WAV
408.758	4.443	0	1	1.508	Tones/nullsilence.WAV	Tones/nullsilence.WAV
413.201	4.443	6	1	2.044	Tones/875675500.WAV	Tones/875675500.WAV
417.644	4.442	3	1	1.396	RhymeSpell/cost.WAV	RhymeSpell/ghost.WAV
422.086	4.443	0	0	n/a	Tones/nullsilence.WAV	Tones/nullsilence.WAV
426.529	4.443	6	1	1.017	Tones/650350575.WAV	Tones/650350575.WAV
430.972	4.443	2	1	2.794	RhymeSpell/gas.WAV	RhymeSpell/pass.WAV
435.415	4.443	3	1	2.91	RhymeSpell/blood.WAV	RhymeSpell/wood.WAV
439.858	4.442	0	1	1.363	Tones/nullsilence.WAV	Tones/nullsilence.WAV
444.3	4.443	4	1	2.564	RhymeSpell/vend.WAV	RhymeSpell/space.WAV
448.743	4.443	2	1	0.889	RhymeSpell/choose.WAV	RhymeSpell/lose.WAV
453.186	4.443	6	0	1.088	Tones/700550775.WAV	Tones/700475775.WAV
457.629	4.443	0	1	1.445	Tones/nullsilence.WAV	Tones/nullsilence.WAV
462.072	4.443	6	0	2.303	Tones/825600375.WAV	Tones/825675375.WAV
466.515	4.442	5	0	1.653	Tones/475.WAV	Tones/550.WAV
470.957	4.443	0	1	2.314	Tones/nullsilence.WAV	Tones/nullsilence.WAV
475.4	4.439	0	1	1.262	Tones/nullsilence.WAV	Tones/nullsilence.WAV
