onset	duration	trial_type	accuracy	response_time	stim1_file	stim2_file
0.0	4.443	2	1	1.119	RhymeSpell/crawl.WAV	RhymeSpell/ball.WAV
4.443	4.443	2	1	0.788	RhymeSpell/moan.WAV	RhymeSpell/bone.WAV
8.886	4.442	0	1	0.672	Tones/nullsilence.WAV	Tones/nullsilence.WAV
13.328	4.443	3	1	1.046	RhymeSpell/harm.WAV	RhymeSpell/warm.WAV
17.771	4.443	0	1	0.766	Tones/nullsilence.WAV	Tones/nullsilence.WAV
22.214	4.443	3	1	0.983	RhymeSpell/dull.WAV	RhymeSpell/pull.WAV
26.657	4.443	5	1	0.779	Tones/700.WAV	Tones/700.WAV
31.1	4.443	1	1	0.815	RhymeSpell/dime.WAV	RhymeSpell/lime.WAV
35.543	4.442	0	1	1.349	Tones/nullsilence.WAV	Tones/nullsilence.WAV
39.985	4.443	1	1	1.809	RhymeSpell/thread.WAV	RhymeSpell/dread.WAV
44.428	4.443	4	1	0.815	RhymeSpell/dash.WAV	RhymeSpell/brow.WAV
48.871	4.443	2	1	1.225	RhymeSpell/though.WAV	RhymeSpell/blow.WAV
53.314	4.443	2	1	1.281	RhymeSpell/greet.WAV	RhymeSpell/neat.WAV
57.757	4.443	0	1	0.611	Tones/nullsilence.WAV	Tones/nullsilence.WAV
62.2	4.442	1	1	1.089	RhymeSpell/mad.WAV	RhymeSpell/pad.WAV
66.642	4.443	0	1	0.823	Tones/nullsilence.WAV	Tones/nullsilence.WAV
71.085	4.443	5	1	0.879	Tones/450.WAV	Tones/525.WAV
75.528	4.443	0	1	0.926	Tones/nullsilence.WAV	Tones/nullsilence.WAV
79.971	4.443	3	1	1.048	RhymeSpell/tough.WAV	RhymeSpell/cough.WAV
84.414	4.443	6	1	0.613	Tones/350475625.WAV	Tones/350475625.WAV
88.857	4.443	1	1	1.437	RhymeSpell/drum.WAV	RhymeSpell/gum.WAV
93.3	4.442	0	1	1.083	Tones/nullsilence.WAV	Tones/nullsilence.WAV
97.742	4.443	5	1	1.273	Tones/825.WAV	Tones/750.WAV
102.185	4.443	5	1	0.913	Tones/875.WAV	Tones/875.WAV
106.628	4.443	2	1	1.193	RhymeSpell/comb.WAV	RhymeSpell/chrome.WAV
111.071	4.443	0	1	0.666	Tones/nullsilence.WAV	Tones/nullsilence.WAV
115.514	4.443	3	1	0.916	RhymeSpell/couch.WAV	RhymeSpell/touch.WAV
119.957	4.442	0	1	0.794	Tones/nullsilence.WAV	Tones/nullsilence.WAV
124.399	4.443	6	0	1.052	Tones/325575725.WAV	Tones/325500725.WAV
128.842	4.443	0	1	0.836	Tones/nullsilence.WAV	Tones/nullsilence.WAV
133.285	4.443	3	1	2.073	RhymeSpell/gull.WAV	RhymeSpell/bull.WAV
137.728	4.443	4	1	1.015	RhymeSpell/goes.WAV	RhymeSpell/lap.WAV
142.171	4.443	5	1	0.95	Tones/525.WAV	Tones/525.WAV
146.614	4.442	1	1	1.157	RhymeSpell/pay.WAV	RhymeSpell/play.WAV
151.056	4.443	0	1	0.745	Tones/nullsilence.WAV	Tones/nullsilence.WAV
155.499	4.443	4	1	0.852	RhymeSpell/staff.WAV	RhymeSpell/gain.WAV
159.942	4.443	5	1	1.324	Tones/425.WAV	Tones/425.WAV
164.385	4.443	0	1	1.004	Tones/nullsilence.WAV	Tones/nullsilence.WAV
168.828	4.443	4	1	1.018	RhymeSpell/scale.WAV	RhymeSpell/fly.WAV
173.271	4.442	0	1	0.746	Tones/nullsilence.WAV	Tones/nullsilence.WAV
177.713	4.443	6	1	1.012	Tones/425700850.WAV	Tones/425700775.WAV
182.156	4.704	0	1	0.554	Tones/nullsilence.WAV	Tones/nullsilence.WAV
186.86	4.442	1	1	1.075	RhymeSpell/hint.WAV	RhymeSpell/print.WAV
191.302	4.443	0	1	0.823	Tones/nullsilence.WAV	Tones/nullsilence.WAV
195.745	4.443	6	1	0.922	Tones/525800450.WAV	Tones/525800450.WAV
200.188	4.443	0	1	0.713	Tones/nullsilence.WAV	Tones/nullsilence.WAV
204.631	4.443	5	1	1.228	Tones/400.WAV	Tones/400.WAV
209.074	4.443	0	1	0.771	Tones/nullsilence.WAV	Tones/nullsilence.WAV
213.517	4.442	3	1	0.821	RhymeSpell/foot.WAV	RhymeSpell/hoot.WAV
217.959	4.443	0	1	0.816	Tones/nullsilence.WAV	Tones/nullsilence.WAV
222.402	4.443	3	1	0.815	RhymeSpell/glove.WAV	RhymeSpell/drove.WAV
226.845	4.443	0	1	0.685	Tones/nullsilence.WAV	Tones/nullsilence.WAV
231.288	4.443	2	1	1.008	RhymeSpell/trade.WAV	RhymeSpell/paid.WAV
235.731	4.443	3	1	1.116	RhymeSpell/moth.WAV	RhymeSpell/both.WAV
240.174	4.442	4	1	1.086	RhymeSpell/start.WAV	RhymeSpell/pure.WAV
244.616	4.443	6	1	0.931	Tones/600550400.WAV	Tones/675550400.WAV
249.059	4.443	0	1	0.797	Tones/nullsilence.WAV	Tones/nullsilence.WAV
253.502	4.443	5	1	0.932	Tones/500.WAV	Tones/500.WAV
257.945	4.443	0	1	0.691	Tones/nullsilence.WAV	Tones/nullsilence.WAV
262.388	4.443	6	1	0.925	Tones/450650850.WAV	Tones/375650850.WAV
266.831	4.443	0	1	0.778	Tones/nullsilence.WAV	Tones/nullsilence.WAV
271.274	4.442	1	1	1.12	RhymeSpell/wall.WAV	RhymeSpell/tall.WAV
275.716	4.443	0	1	0.676	Tones/nullsilence.WAV	Tones/nullsilence.WAV
280.159	4.443	2	1	1.261	RhymeSpell/glad.WAV	RhymeSpell/plaid.WAV
284.602	4.443	0	1	0.861	Tones/nullsilence.WAV	Tones/nullsilence.WAV
289.045	4.443	5	0	1.341	Tones/725.WAV	Tones/650.WAV
293.488	4.443	0	1	0.951	Tones/nullsilence.WAV	Tones/nullsilence.WAV
297.931	4.442	4	1	0.696	RhymeSpell/strut.WAV	RhymeSpell/glint.WAV
302.373	4.443	2	1	0.864	RhymeSpell/sheet.WAV	RhymeSpell/heat.WAV
306.816	4.443	6	1	0.816	Tones/750300700.WAV	Tones/750300700.WAV
311.259	4.443	2	1	1.396	RhymeSpell/whom.WAV	RhymeSpell/womb.WAV
315.702	4.443	4	1	0.84	RhymeSpell/spare.WAV	RhymeSpell/cow.WAV
320.145	4.443	0	1	0.747	Tones/nullsilence.WAV	Tones/nullsilence.WAV
324.588	4.442	3	1	0.927	RhymeSpell/fat.WAV	RhymeSpell/swat.WAV
329.03	4.443	4	1	0.944	RhymeSpell/team.WAV	RhymeSpell/brief.WAV
333.473	4.443	0	1	0.745	Tones/nullsilence.WAV	Tones/nullsilence.WAV
337.916	4.443	5	1	1.202	Tones/550.WAV	Tones/550.WAV
342.359	4.443	0	1	0.896	Tones/nullsilence.WAV	Tones/nullsilence.WAV
346.802	4.443	3	1	1.408	RhymeSpell/bad.WAV	RhymeSpell/wad.WAV
351.245	4.442	1	1	1.076	RhymeSpell/glare.WAV	RhymeSpell/share.WAV
355.687	4.443	0	1	0.745	Tones/nullsilence.WAV	Tones/nullsilence.WAV
360.13	4.443	1	1	0.787	RhymeSpell/cold.WAV	RhymeSpell/told.WAV
364.573	4.443	6	1	0.943	Tones/775625825.WAV	Tones/775625825.WAV
369.016	4.443	1	1	0.985	RhymeSpell/dawn.WAV	RhymeSpell/lawn.WAV
373.459	4.443	1	1	0.963	RhymeSpell/broke.WAV	RhymeSpell/joke.WAV
377.902	4.443	4	1	0.855	RhymeSpell/craft.WAV	RhymeSpell/young.WAV
382.345	4.442	0	1	0.769	Tones/nullsilence.WAV	Tones/nullsilence.WAV
386.787	4.443	3	1	1.217	RhymeSpell/hull.WAV	RhymeSpell/full.WAV
391.23	4.443	3	1	1.266	RhymeSpell/freight.WAV	RhymeSpell/height.WAV
395.673	4.443	5	1	0.826	Tones/750.WAV	Tones/675.WAV
400.116	4.443	2	1	1.079	RhymeSpell/stool.WAV	RhymeSpell/ghoul.WAV
404.559	4.443	2	1	1.341	RhymeSpell/hoe.WAV	RhymeSpell/throw.WAV
409.002	4.442	0	1	2.082	Tones/nullsilence.WAV	Tones/nullsilence.WAV
413.444	4.443	6	1	1.161	Tones/875675500.WAV	Tones/875675500.WAV
417.887	4.443	3	0	1.222	RhymeSpell/cost.WAV	RhymeSpell/ghost.WAV
422.33	4.443	0	1	0.706	Tones/nullsilence.WAV	Tones/nullsilence.WAV
426.773	4.443	6	1	1.234	Tones/650350575.WAV	Tones/650350575.WAV
431.216	4.443	2	1	1.279	RhymeSpell/gas.WAV	RhymeSpell/pass.WAV
435.659	4.442	3	0	0.854	RhymeSpell/blood.WAV	RhymeSpell/wood.WAV
440.101	4.443	0	1	1.055	Tones/nullsilence.WAV	Tones/nullsilence.WAV
444.544	4.443	4	1	1.033	RhymeSpell/vend.WAV	RhymeSpell/space.WAV
448.987	4.443	2	1	0.904	RhymeSpell/choose.WAV	RhymeSpell/lose.WAV
453.43	4.443	6	0	0.998	Tones/700550775.WAV	Tones/700475775.WAV
457.873	4.443	0	1	0.992	Tones/nullsilence.WAV	Tones/nullsilence.WAV
462.316	4.442	6	1	1.979	Tones/825600375.WAV	Tones/825675375.WAV
466.758	4.443	5	1	0.815	Tones/475.WAV	Tones/550.WAV
471.201	4.443	0	1	0.718	Tones/nullsilence.WAV	Tones/nullsilence.WAV
475.644	4.439	0	1	0.734	Tones/nullsilence.WAV	Tones/nullsilence.WAV
