onset	duration	trial_type	accuracy	response_time	stim1_file	stim2_file
0.0	4.443	4	1	1.372	Symbols/z.bmp	Symbols/t1.bmp
4.443	4.443	2	1	1.393	Semantic/seafood.bmp	Semantic/shrimp2.bmp
8.886	4.443	0	1	1.028	Semantic/null.bmp	Semantic/null.bmp
13.329	4.443	4	1	1.301	Symbols/j.bmp	Symbols/o1.bmp
17.772	4.442	5	1	1.355	Symbols/odt.bmp	Symbols/odt2.bmp
22.214	4.443	0	1	1.347	Semantic/null.bmp	Semantic/null.bmp
26.657	4.443	5	0	1.46	Symbols/lfa.bmp	Symbols/lfa1.bmp
31.1	4.443	4	1	1.337	Symbols/b.bmp	Symbols/b2.bmp
35.543	4.443	4	1	1.157	Symbols/y.bmp	Symbols/y1.bmp
39.986	4.443	0	1	1.222	Semantic/null.bmp	Semantic/null.bmp
44.429	4.442	1	1	1.27	Semantic/noun.bmp	Semantic/verb2.bmp
48.871	4.443	2	1	1.957	Semantic/save.bmp	Semantic/keep1.bmp
53.314	4.443	0	1	1.646	Semantic/null.bmp	Semantic/null.bmp
57.757	4.443	3	1	1.215	Semantic/jewel.bmp	Semantic/moan2.bmp
62.2	4.443	5	1	1.416	Symbols/zti.bmp	Symbols/zvi1.bmp
66.643	4.443	1	1	1.836	Semantic/washer.bmp	Semantic/dryer2.bmp
71.086	4.442	0	1	1.29	Semantic/null.bmp	Semantic/null.bmp
75.528	4.443	1	1	1.426	Semantic/sock.bmp	Semantic/shoe1.bmp
79.971	4.443	0	1	1.444	Semantic/null.bmp	Semantic/null.bmp
84.414	4.443	1	1	1.255	Semantic/touch.bmp	Semantic/feel1.bmp
88.857	4.443	0	1	1.361	Semantic/null.bmp	Semantic/null.bmp
93.3	4.443	2	1	1.68	Semantic/glue.bmp	Semantic/sticky1.bmp
97.743	4.443	0	1	1.867	Semantic/null.bmp	Semantic/null.bmp
102.186	4.442	1	1	1.462	Semantic/yell.bmp	Semantic/scream2.bmp
106.628	4.443	0	1	1.941	Semantic/null.bmp	Semantic/null.bmp
111.071	4.443	2	1	1.549	Semantic/temper.bmp	Semantic/tantrum2.bmp
115.514	4.443	2	1	1.377	Semantic/cheese.bmp	Semantic/cracker2.bmp
119.957	4.443	0	1	1.901	Semantic/null.bmp	Semantic/null.bmp
124.4	4.443	3	1	1.979	Semantic/rubber.bmp	Semantic/straw1.bmp
128.843	4.442	0	1	1.391	Semantic/null.bmp	Semantic/null.bmp
133.285	4.443	4	1	1.213	Symbols/a.bmp	Symbols/a1.bmp
137.728	4.443	0	1	1.577	Semantic/null.bmp	Semantic/null.bmp
142.171	4.443	1	1	1.279	Semantic/winner.bmp	Semantic/loser1.bmp
146.614	4.443	1	1	1.248	Semantic/start.bmp	Semantic/finish1.bmp
151.057	4.443	2	1	1.308	Semantic/children.bmp	Semantic/kids1.bmp
155.5	4.442	0	1	1.355	Semantic/null.bmp	Semantic/null.bmp
159.942	4.443	1	1	1.425	Semantic/question.bmp	Semantic/answer1.bmp
164.385	4.443	0	1	1.402	Semantic/null.bmp	Semantic/null.bmp
168.828	4.443	3	1	1.59	Semantic/stream.bmp	Semantic/rear1.bmp
173.271	4.443	0	1	1.418	Semantic/null.bmp	Semantic/null.bmp
177.714	4.443	3	1	1.553	Semantic/hearing.bmp	Semantic/bottle2.bmp
182.157	4.442	0	1	1.524	Semantic/null.bmp	Semantic/null.bmp
186.599	4.443	1	1	1.468	Semantic/above.bmp	Semantic/below1.bmp
191.042	4.443	4	1	1.404	Symbols/e.bmp	Symbols/e1.bmp
195.485	4.443	0	1	1.576	Semantic/null.bmp	Semantic/null.bmp
199.928	4.443	1	1	1.595	Semantic/circus.bmp	Semantic/clown1.bmp
204.371	4.443	4	1	1.229	Symbols/f.bmp	Symbols/f1.bmp
208.814	4.442	3	1	1.403	Semantic/rich.bmp	Semantic/pointed1.bmp
213.256	4.443	0	1	1.058	Semantic/null.bmp	Semantic/null.bmp
217.699	4.443	5	1	1.293	Symbols/drp.bmp	Symbols/drn1.bmp
222.142	4.443	0	1	1.654	Semantic/null.bmp	Semantic/null.bmp
226.585	4.443	4	1	1.334	Symbols/o.bmp	Symbols/d1.bmp
231.028	4.443	1	1	1.327	Semantic/mitten.bmp	Semantic/glove2.bmp
235.471	4.443	2	1	2.112	Semantic/silent.bmp	Semantic/quiet2.bmp
239.914	4.442	3	1	1.233	Semantic/towel.bmp	Semantic/puppet1.bmp
244.356	4.443	1	1	1.513	Semantic/syrup.bmp	Semantic/pancakes2.bmp
248.799	4.443	0	1	1.416	Semantic/null.bmp	Semantic/null.bmp
253.242	4.443	3	1	1.486	Semantic/upper.bmp	Semantic/broke1.bmp
257.685	4.443	2	1	1.336	Semantic/lobster.bmp	Semantic/crab1.bmp
262.128	4.443	0	1	1.623	Semantic/null.bmp	Semantic/null.bmp
266.571	4.442	0	1	1.309	Semantic/null.bmp	Semantic/null.bmp
271.013	4.443	3	1	1.475	Semantic/ranch.bmp	Semantic/chin1.bmp
275.456	4.443	4	1	1.228	Symbols/k.bmp	Symbols/k1.bmp
279.899	4.443	0	1	1.524	Semantic/null.bmp	Semantic/null.bmp
284.342	4.443	5	1	1.574	Symbols/ntv.bmp	Symbols/ntv2.bmp
288.785	4.443	2	1	1.322	Semantic/razor.bmp	Semantic/blade1.bmp
293.228	4.442	0	1	1.349	Semantic/null.bmp	Semantic/null.bmp
297.67	4.443	1	1	1.736	Semantic/jam.bmp	Semantic/jelly2.bmp
302.113	4.443	2	1	1.333	Semantic/smudge.bmp	Semantic/smear2.bmp
306.556	4.443	0	1	1.355	Semantic/null.bmp	Semantic/null.bmp
310.999	4.443	5	1	1.381	Symbols/gbk.bmp	Symbols/rbk2.bmp
315.442	4.443	4	1	1.266	Symbols/g.bmp	Symbols/p2.bmp
319.885	4.442	0	1	1.671	Semantic/null.bmp	Semantic/null.bmp
324.327	4.443	3	1	1.308	Semantic/clerk.bmp	Semantic/bent2.bmp
328.77	4.443	2	1	1.475	Semantic/finish.bmp	Semantic/end2.bmp
333.213	4.443	0	1	1.523	Semantic/null.bmp	Semantic/null.bmp
337.656	4.443	5	1	1.277	Symbols/zsj.bmp	Symbols/wsj1.bmp
342.099	4.443	0	1	1.525	Semantic/null.bmp	Semantic/null.bmp
346.542	4.442	5	1	1.441	Symbols/lwy.bmp	Symbols/lwy1.bmp
350.984	4.443	5	1	1.32	Symbols/lik.bmp	Symbols/lik1.bmp
355.427	4.443	5	1	1.278	Symbols/one.bmp	Symbols/one2.bmp
359.87	4.443	0	1	1.857	Semantic/null.bmp	Semantic/null.bmp
364.313	4.443	5	1	1.765	Symbols/hvj.bmp	Symbols/hvj1.bmp
368.756	4.443	5	1	1.197	Symbols/rbe.bmp	Symbols/rte1.bmp
373.199	4.443	3	1	1.681	Semantic/map.bmp	Semantic/hut1.bmp
377.642	4.442	3	1	1.2	Semantic/scar.bmp	Semantic/tunnel1.bmp
382.084	4.443	4	1	1.331	Symbols/d.bmp	Symbols/r2.bmp
386.527	4.443	5	1	1.272	Symbols/wug.bmp	Symbols/wyg2.bmp
390.97	4.439	0	1	1.284	Semantic/null.bmp	Semantic/null.bmp
