onset	duration	trial_type	accuracy	response_time	stim1_file	stim2_file
0.0	4.443	2	1	1.135	RhymeSpell/stroll.bmp	RhymeSpell/bowl1.bmp
4.443	4.443	2	1	1.251	RhymeSpell/shed.bmp	RhymeSpell/tread1.bmp
8.886	4.442	0	1	1.27	RhymeSpell/null.bmp	RhymeSpell/null.bmp
13.328	4.443	3	1	0.798	RhymeSpell/cove.bmp	RhymeSpell/prove2.bmp
17.771	4.443	0	1	1.766	RhymeSpell/null.bmp	RhymeSpell/null.bmp
22.214	4.443	3	1	0.984	RhymeSpell/climb.bmp	RhymeSpell/limb1.bmp
26.657	4.443	5	1	0.534	Symbols/m.bmp	Symbols/m2.bmp
31.1	4.443	1	1	0.554	RhymeSpell/class.bmp	RhymeSpell/mass2.bmp
35.543	4.442	0	1	2.88	RhymeSpell/null.bmp	RhymeSpell/null.bmp
39.985	4.443	1	1	2.661	RhymeSpell/brain.bmp	RhymeSpell/train2.bmp
44.428	4.443	4	1	1.152	RhymeSpell/norm.bmp	RhymeSpell/group1.bmp
48.871	4.443	2	0	0.683	RhymeSpell/caught.bmp	RhymeSpell/bought2.bmp
53.314	4.443	2	1	1.268	RhymeSpell/putt.bmp	RhymeSpell/cut2.bmp
57.757	4.443	0	1	1.373	RhymeSpell/null.bmp	RhymeSpell/null.bmp
62.2	4.443	1	1	0.677	RhymeSpell/nod.bmp	RhymeSpell/rod1.bmp
66.643	4.442	0	1	1.529	RhymeSpell/null.bmp	RhymeSpell/null.bmp
71.085	4.443	5	1	0.691	Symbols/z.bmp	Symbols/t1.bmp
75.528	4.443	0	1	1.314	RhymeSpell/null.bmp	RhymeSpell/null.bmp
79.971	4.443	3	1	0.784	RhymeSpell/hatch.bmp	RhymeSpell/watch2.bmp
84.414	4.443	6	1	0.767	Symbols/lfa.bmp	Symbols/lfa1.bmp
88.857	4.443	1	1	0.832	RhymeSpell/mark.bmp	RhymeSpell/park1.bmp
93.3	4.442	0	1	1.677	RhymeSpell/null.bmp	RhymeSpell/null.bmp
97.742	4.443	5	1	0.7	Symbols/j.bmp	Symbols/o1.bmp
102.185	4.443	5	1	0.543	Symbols/b.bmp	Symbols/b2.bmp
106.628	4.443	2	1	0.784	RhymeSpell/stuff.bmp	RhymeSpell/rough1.bmp
111.071	4.443	0	1	1.837	RhymeSpell/null.bmp	RhymeSpell/null.bmp
115.514	4.443	3	1	1.063	RhymeSpell/cheat.bmp	RhymeSpell/sweat1.bmp
119.957	4.442	0	1	2.273	RhymeSpell/null.bmp	RhymeSpell/null.bmp
124.399	4.443	6	0	0.679	Symbols/zti.bmp	Symbols/zvi1.bmp
128.842	4.443	0	1	1.174	RhymeSpell/null.bmp	RhymeSpell/null.bmp
133.285	4.443	3	1	0.651	RhymeSpell/flood.bmp	RhymeSpell/mood1.bmp
137.728	4.443	4	1	1.2	RhymeSpell/slap.bmp	RhymeSpell/tool1.bmp
142.171	4.443	5	1	1.179	Symbols/y.bmp	Symbols/y1.bmp
146.614	4.442	1	1	1.314	RhymeSpell/paste.bmp	RhymeSpell/taste1.bmp
151.056	4.443	0	1	2.225	RhymeSpell/null.bmp	RhymeSpell/null.bmp
155.499	4.443	4	1	0.815	RhymeSpell/walk.bmp	RhymeSpell/reef2.bmp
159.942	4.443	5	1	1.079	Symbols/a.bmp	Symbols/a1.bmp
164.385	4.443	0	1	1.423	RhymeSpell/null.bmp	RhymeSpell/null.bmp
168.828	4.443	4	1	0.983	RhymeSpell/trap.bmp	RhymeSpell/treat1.bmp
173.271	4.443	0	1	2.992	RhymeSpell/null.bmp	RhymeSpell/null.bmp
177.714	4.442	6	1	1.455	Symbols/drp.bmp	Symbols/drn1.bmp
182.156	4.443	0	1	1.474	RhymeSpell/null.bmp	RhymeSpell/null.bmp
186.599	4.443	1	1	1.21	RhymeSpell/sir.bmp	RhymeSpell/stir1.bmp
191.042	4.443	0	1	2.12	RhymeSpell/null.bmp	RhymeSpell/null.bmp
195.485	4.443	6	1	1.534	Symbols/ntv.bmp	Symbols/ntv2.bmp
199.928	4.443	0	1	1.244	RhymeSpell/null.bmp	RhymeSpell/null.bmp
204.371	4.442	5	1	0.644	Symbols/e.bmp	Symbols/e1.bmp
208.813	4.443	0	1	1.389	RhymeSpell/null.bmp	RhymeSpell/null.bmp
213.256	4.443	3	1	1.211	RhymeSpell/chase.bmp	RhymeSpell/phrase2.bmp
217.699	4.443	0	0	n/a	RhymeSpell/null.bmp	RhymeSpell/null.bmp
222.142	4.443	3	1	1.187	RhymeSpell/fan.bmp	RhymeSpell/swan1.bmp
226.585	4.443	0	1	1.661	RhymeSpell/null.bmp	RhymeSpell/null.bmp
231.028	4.442	2	1	1.232	RhymeSpell/cone.bmp	RhymeSpell/blown2.bmp
235.47	4.443	3	1	0.724	RhymeSpell/deaf.bmp	RhymeSpell/leaf2.bmp
239.913	4.443	4	1	0.983	RhymeSpell/drown.bmp	RhymeSpell/whose1.bmp
244.356	4.443	6	1	0.988	Symbols/gbk.bmp	Symbols/rbk2.bmp
248.799	4.443	0	1	1.304	RhymeSpell/null.bmp	RhymeSpell/null.bmp
253.242	4.443	5	1	0.56	Symbols/f.bmp	Symbols/f1.bmp
257.685	4.442	0	1	1.562	RhymeSpell/null.bmp	RhymeSpell/null.bmp
262.127	4.443	6	1	0.756	Symbols/zsj.bmp	Symbols/wsj1.bmp
266.57	4.443	0	1	1.753	RhymeSpell/null.bmp	RhymeSpell/null.bmp
271.013	4.443	1	1	1.078	RhymeSpell/chance.bmp	RhymeSpell/dance2.bmp
275.456	4.443	0	1	1.373	RhymeSpell/null.bmp	RhymeSpell/null.bmp
279.899	4.443	2	1	1.979	RhymeSpell/zone.bmp	RhymeSpell/flown1.bmp
284.342	4.442	0	0	n/a	RhymeSpell/null.bmp	RhymeSpell/null.bmp
288.784	4.443	5	1	0.886	Symbols/o.bmp	Symbols/d1.bmp
293.227	4.443	0	1	1.363	RhymeSpell/null.bmp	RhymeSpell/null.bmp
297.67	4.443	4	1	0.633	RhymeSpell/pose.bmp	RhymeSpell/brown2.bmp
302.113	4.443	2	1	0.821	RhymeSpell/mom.bmp	RhymeSpell/bomb1.bmp
306.556	4.443	6	1	0.647	Symbols/lwy.bmp	Symbols/lwy1.bmp
310.999	4.443	2	1	1.23	RhymeSpell/dose.bmp	RhymeSpell/gross1.bmp
315.442	4.442	4	1	0.892	RhymeSpell/theme.bmp	RhymeSpell/jail2.bmp
319.884	4.443	0	1	2.983	RhymeSpell/null.bmp	RhymeSpell/null.bmp
324.327	4.443	3	0	1.495	RhymeSpell/doll.bmp	RhymeSpell/toll1.bmp
328.77	4.443	4	1	1.215	RhymeSpell/thus.bmp	RhymeSpell/stay2.bmp
333.213	4.443	0	1	2.346	RhymeSpell/null.bmp	RhymeSpell/null.bmp
337.656	4.443	5	1	0.747	Symbols/k.bmp	Symbols/k1.bmp
342.099	4.442	0	1	1.26	RhymeSpell/null.bmp	RhymeSpell/null.bmp
346.541	4.443	3	1	0.621	RhymeSpell/charm.bmp	RhymeSpell/swarm1.bmp
350.984	4.443	1	1	0.865	RhymeSpell/boss.bmp	RhymeSpell/moss1.bmp
355.427	4.443	0	1	2.271	RhymeSpell/null.bmp	RhymeSpell/null.bmp
359.87	4.443	1	1	0.584	RhymeSpell/tax.bmp	RhymeSpell/wax1.bmp
364.313	4.443	6	1	0.934	Symbols/lik.bmp	Symbols/lik1.bmp
368.756	4.442	1	1	0.757	RhymeSpell/moose.bmp	RhymeSpell/goose1.bmp
373.198	4.443	1	1	1.488	RhymeSpell/hut.bmp	RhymeSpell/shut2.bmp
377.641	4.443	4	1	0.859	RhymeSpell/soup.bmp	RhymeSpell/stood1.bmp
382.084	4.443	0	1	2.582	RhymeSpell/null.bmp	RhymeSpell/null.bmp
386.527	4.443	3	1	0.9	RhymeSpell/pint.bmp	RhymeSpell/mint1.bmp
390.97	4.443	3	0	1.163	RhymeSpell/frost.bmp	RhymeSpell/post1.bmp
395.413	4.442	5	1	0.795	Symbols/g.bmp	Symbols/p2.bmp
399.855	4.443	2	1	1.363	RhymeSpell/cheer.bmp	RhymeSpell/gear1.bmp
404.298	4.443	2	1	0.758	RhymeSpell/dare.bmp	RhymeSpell/swear2.bmp
408.741	4.443	0	1	1.309	RhymeSpell/null.bmp	RhymeSpell/null.bmp
413.184	4.443	6	1	0.852	Symbols/one.bmp	Symbols/one2.bmp
417.627	4.443	3	1	1.058	RhymeSpell/card.bmp	RhymeSpell/ward2.bmp
422.07	4.443	0	1	1.45	RhymeSpell/null.bmp	RhymeSpell/null.bmp
426.513	4.442	6	1	0.516	Symbols/hvj.bmp	Symbols/hvj1.bmp
430.955	4.443	2	1	0.815	RhymeSpell/seek.bmp	RhymeSpell/beak2.bmp
435.398	4.444	3	1	0.693	RhymeSpell/five.bmp	RhymeSpell/give1.bmp
439.842	4.442	0	1	1.314	RhymeSpell/null.bmp	RhymeSpell/null.bmp
444.284	4.443	4	1	0.982	RhymeSpell/thigh.bmp	RhymeSpell/duke1.bmp
448.727	4.443	2	1	0.874	RhymeSpell/clean.bmp	RhymeSpell/screen2.bmp
453.17	4.442	6	0	0.989	Symbols/rbe.bmp	Symbols/rte1.bmp
457.612	4.443	0	1	1.318	RhymeSpell/null.bmp	RhymeSpell/null.bmp
462.055	4.443	6	0	0.713	Symbols/wug.bmp	Symbols/wyg2.bmp
466.498	4.443	5	1	0.816	Symbols/d.bmp	Symbols/r2.bmp
470.941	4.443	0	1	1.548	RhymeSpell/null.bmp	RhymeSpell/null.bmp
475.384	4.439	0	1	1.429	RhymeSpell/null.bmp	RhymeSpell/null.bmp
