onset	duration	trial_type	accuracy	response_time	stim1_file	stim2_file
0.0	4.442	3	1	1.884	RhymeSpell/mouth.WAV	RhymeSpell/youth.WAV
4.442	4.443	2	1	1.734	RhymeSpell/tone.WAV	RhymeSpell/known.WAV
8.885	4.443	5	1	1.296	Tones/675.WAV	Tones/600.WAV
13.328	4.443	0	1	1.588	Tones/nullsilence.WAV	Tones/nullsilence.WAV
17.771	4.443	3	0	2.793	RhymeSpell/pool.WAV	RhymeSpell/wool.WAV
22.214	4.443	0	0	n/a	Tones/nullsilence.WAV	Tones/nullsilence.WAV
26.657	4.443	5	1	1.327	Tones/600.WAV	Tones/600.WAV
31.1	4.442	5	1	1.591	Tones/325.WAV	Tones/325.WAV
35.542	4.443	1	1	2.303	RhymeSpell/meal.WAV	RhymeSpell/seal.WAV
39.985	4.443	0	1	1.742	Tones/nullsilence.WAV	Tones/nullsilence.WAV
44.428	4.443	3	1	2.207	RhymeSpell/low.WAV	RhymeSpell/vow.WAV
48.871	4.443	6	1	1.463	Tones/425600750.WAV	Tones/425600750.WAV
53.314	4.443	0	1	1.968	Tones/nullsilence.WAV	Tones/nullsilence.WAV
57.757	4.442	0	1	1.465	Tones/nullsilence.WAV	Tones/nullsilence.WAV
62.199	4.443	4	1	2.522	RhymeSpell/wrist.WAV	RhymeSpell/friend.WAV
66.642	4.443	4	1	1.236	RhymeSpell/halt.WAV	RhymeSpell/stain.WAV
71.085	4.443	0	1	1.636	Tones/nullsilence.WAV	Tones/nullsilence.WAV
75.528	4.443	6	0	2.55	Tones/550800525.WAV	Tones/550800600.WAV
79.971	4.443	6	0	3.304	Tones/350825400.WAV	Tones/425825400.WAV
84.414	4.443	0	1	2.628	Tones/nullsilence.WAV	Tones/nullsilence.WAV
88.857	4.442	1	1	1.298	RhymeSpell/cure.WAV	RhymeSpell/sure.WAV
93.299	4.443	2	1	1.592	RhymeSpell/sleek.WAV	RhymeSpell/speak.WAV
97.742	4.443	0	0	n/a	Tones/nullsilence.WAV	Tones/nullsilence.WAV
102.185	4.443	4	1	1.458	RhymeSpell/trust.WAV	RhymeSpell/chalk.WAV
106.628	4.443	2	1	1.431	RhymeSpell/street.WAV	RhymeSpell/wheat.WAV
111.071	4.443	0	0	n/a	Tones/nullsilence.WAV	Tones/nullsilence.WAV
115.514	4.442	6	1	1.378	Tones/650475300.WAV	Tones/650475300.WAV
119.956	4.443	6	0	2.353	Tones/425675500.WAV	Tones/425750500.WAV
124.399	4.443	0	0	n/a	Tones/nullsilence.WAV	Tones/nullsilence.WAV
128.842	4.443	5	0	2.358	Tones/350.WAV	Tones/425.WAV
133.285	4.443	0	0	n/a	Tones/nullsilence.WAV	Tones/nullsilence.WAV
137.728	4.443	2	0	2.48	RhymeSpell/rear.WAV	RhymeSpell/mere.WAV
142.171	4.442	1	0	n/a	RhymeSpell/crown.WAV	RhymeSpell/town.WAV
146.613	4.443	3	1	1.208	RhymeSpell/sword.WAV	RhymeSpell/word.WAV
151.056	4.443	6	1	1.14	Tones/875575325.WAV	Tones/875575400.WAV
155.499	4.443	3	1	2.628	RhymeSpell/head.WAV	RhymeSpell/bead.WAV
159.942	4.443	0	0	n/a	Tones/nullsilence.WAV	Tones/nullsilence.WAV
164.385	4.443	5	1	1.753	Tones/850.WAV	Tones/850.WAV
168.828	4.443	0	1	1.724	Tones/nullsilence.WAV	Tones/nullsilence.WAV
173.271	4.442	6	1	1.317	Tones/725400775.WAV	Tones/650400775.WAV
177.713	4.443	2	1	2.465	RhymeSpell/size.WAV	RhymeSpell/wise.WAV
182.156	4.443	4	1	1.244	RhymeSpell/clash.WAV	RhymeSpell/worse.WAV
186.599	4.443	5	1	3.038	Tones/775.WAV	Tones/700.WAV
191.042	4.443	0	1	2.211	Tones/nullsilence.WAV	Tones/nullsilence.WAV
195.485	4.443	0	1	1.185	Tones/nullsilence.WAV	Tones/nullsilence.WAV
199.928	4.442	4	1	1.157	RhymeSpell/loose.WAV	RhymeSpell/drew.WAV
204.37	4.443	0	1	2.984	Tones/nullsilence.WAV	Tones/nullsilence.WAV
208.813	4.443	4	1	2.365	RhymeSpell/yeast.WAV	RhymeSpell/tooth.WAV
213.256	4.443	0	0	n/a	Tones/nullsilence.WAV	Tones/nullsilence.WAV
217.699	4.443	3	1	2.285	RhymeSpell/shove.WAV	RhymeSpell/wove.WAV
222.142	4.443	5	1	1.213	Tones/625.WAV	Tones/625.WAV
226.585	4.443	2	0	n/a	RhymeSpell/chair.WAV	RhymeSpell/scare.WAV
231.028	4.442	0	1	1.954	Tones/nullsilence.WAV	Tones/nullsilence.WAV
235.47	4.443	1	1	2.58	RhymeSpell/dad.WAV	RhymeSpell/sad.WAV
239.913	4.443	0	0	n/a	Tones/nullsilence.WAV	Tones/nullsilence.WAV
244.356	4.443	4	0	n/a	RhymeSpell/beef.WAV	RhymeSpell/keep.WAV
248.799	4.443	3	1	1.137	RhymeSpell/broad.WAV	RhymeSpell/toad.WAV
253.242	4.443	0	1	1.291	Tones/nullsilence.WAV	Tones/nullsilence.WAV
257.685	4.442	0	1	1.268	Tones/nullsilence.WAV	Tones/nullsilence.WAV
262.127	4.443	4	0	1.729	RhymeSpell/rail.WAV	RhymeSpell/fast.WAV
266.57	4.443	0	1	2.295	Tones/nullsilence.WAV	Tones/nullsilence.WAV
271.013	4.443	1	1	2.052	RhymeSpell/leg.WAV	RhymeSpell/peg.WAV
275.456	4.443	1	1	1.906	RhymeSpell/mule.WAV	RhymeSpell/rule.WAV
279.899	4.443	6	0	1.295	Tones/325500725.WAV	Tones/325500725.WAV
284.342	4.442	6	1	2.433	Tones/625450850.WAV	Tones/625450775.WAV
288.784	4.443	0	1	1.411	Tones/nullsilence.WAV	Tones/nullsilence.WAV
293.227	4.443	4	1	1.103	RhymeSpell/storm.WAV	RhymeSpell/chose.WAV
297.67	4.443	0	1	0.991	Tones/nullsilence.WAV	Tones/nullsilence.WAV
302.113	4.443	2	1	1.199	RhymeSpell/prize.WAV	RhymeSpell/rise.WAV
306.556	4.443	0	1	2.395	Tones/nullsilence.WAV	Tones/nullsilence.WAV
310.999	4.443	1	1	1.166	RhymeSpell/fought.WAV	RhymeSpell/sought.WAV
315.442	4.442	4	1	0.904	RhymeSpell/wage.WAV	RhymeSpell/spice.WAV
319.884	4.443	1	1	1.141	RhymeSpell/beast.WAV	RhymeSpell/least.WAV
324.327	4.443	5	1	0.992	Tones/800.WAV	Tones/800.WAV
328.77	4.443	5	1	0.826	Tones/375.WAV	Tones/450.WAV
333.213	4.443	0	1	1.249	Tones/nullsilence.WAV	Tones/nullsilence.WAV
337.656	4.443	4	1	1.526	RhymeSpell/dome.WAV	RhymeSpell/fool.WAV
342.099	4.442	0	0	1.294	Tones/nullsilence.WAV	Tones/nullsilence.WAV
346.541	4.443	1	1	2.022	RhymeSpell/grant.WAV	RhymeSpell/slant.WAV
350.984	4.443	1	1	1.937	RhymeSpell/numb.WAV	RhymeSpell/thumb.WAV
355.427	4.443	1	1	2.001	RhymeSpell/chess.WAV	RhymeSpell/press.WAV
359.87	4.443	6	1	1.522	Tones/875675300.WAV	Tones/875675300.WAV
364.313	4.443	3	1	2.025	RhymeSpell/damp.WAV	RhymeSpell/swamp.WAV
368.756	4.443	2	1	1.379	RhymeSpell/true.WAV	RhymeSpell/grew.WAV
373.199	4.443	0	1	2.638	Tones/nullsilence.WAV	Tones/nullsilence.WAV
377.642	4.442	5	1	2.108	Tones/650.WAV	Tones/575.WAV
382.084	4.443	3	1	1.357	RhymeSpell/shown.WAV	RhymeSpell/clown.WAV
386.527	4.443	4	1	1.32	RhymeSpell/paint.WAV	RhymeSpell/sigh.WAV
390.97	4.443	1	1	1.354	RhymeSpell/stone.WAV	RhymeSpell/zone.WAV
395.413	4.443	0	1	1.282	Tones/nullsilence.WAV	Tones/nullsilence.WAV
399.856	4.442	6	1	1.15	Tones/375750475.WAV	Tones/375750475.WAV
404.298	4.443	0	1	1.115	Tones/nullsilence.WAV	Tones/nullsilence.WAV
408.741	4.443	0	1	1.322	Tones/nullsilence.WAV	Tones/nullsilence.WAV
413.184	4.443	2	1	2.449	RhymeSpell/spear.WAV	RhymeSpell/sphere.WAV
417.627	4.443	0	0	n/a	Tones/nullsilence.WAV	Tones/nullsilence.WAV
422.07	4.443	6	1	1.297	Tones/375800525.WAV	Tones/375800525.WAV
426.513	4.442	2	0	n/a	RhymeSpell/pro.WAV	RhymeSpell/mow.WAV
430.955	4.443	0	1	1.543	Tones/nullsilence.WAV	Tones/nullsilence.WAV
435.398	4.443	4	0	n/a	RhymeSpell/home.WAV	RhymeSpell/form.WAV
439.841	4.443	3	0	1.645	RhymeSpell/smooth.WAV	RhymeSpell/booth.WAV
444.284	4.443	0	1	2.096	Tones/nullsilence.WAV	Tones/nullsilence.WAV
448.727	4.443	1	1	1.752	RhymeSpell/grief.WAV	RhymeSpell/thief.WAV
453.17	4.443	2	1	2.488	RhymeSpell/top.WAV	RhymeSpell/swap.WAV
457.613	4.442	5	1	1.217	Tones/300.WAV	Tones/375.WAV
462.055	4.443	0	0	n/a	Tones/nullsilence.WAV	Tones/nullsilence.WAV
466.498	4.443	5	0	3.057	Tones/575.WAV	Tones/650.WAV
470.941	4.443	0	1	0.947	Tones/nullsilence.WAV	Tones/nullsilence.WAV
475.384	4.439	4	0	n/a	RhymeSpell/dream.WAV	RhymeSpell/blame.WAV
