onset	duration	trial_type	accuracy	response_time	stim1_file	stim2_file
0.0	4.443	3	1	1.204	Semantic/handle.WAV	Semantic/depth.WAV
4.443	4.442	2	1	1.547	Semantic/yarn.WAV	Semantic/knit.WAV
8.885	4.443	3	1	1.135	Semantic/dessert.WAV	Semantic/bony.WAV
13.328	4.443	0	1	1.099	Tones/nullsilence.WAV	Tones/nullsilence.WAV
17.771	4.443	2	1	1.147	Semantic/dish.WAV	Semantic/plate.WAV
22.214	4.443	4	1	1.027	Tones/675.WAV	Tones/600.WAV
26.657	4.443	0	1	1.856	Tones/nullsilence.WAV	Tones/nullsilence.WAV
31.1	4.442	4	1	0.94	Tones/600.WAV	Tones/600.WAV
35.542	4.443	4	1	0.971	Tones/325.WAV	Tones/325.WAV
39.985	4.443	4	1	1.221	Tones/350.WAV	Tones/425.WAV
44.428	4.443	0	1	1.8	Tones/nullsilence.WAV	Tones/nullsilence.WAV
48.871	4.443	4	1	1.572	Tones/850.WAV	Tones/850.WAV
53.314	4.443	0	1	2.037	Tones/nullsilence.WAV	Tones/nullsilence.WAV
57.757	4.442	3	1	0.893	Semantic/flush.WAV	Semantic/cliff.WAV
62.199	4.443	0	1	1.153	Tones/nullsilence.WAV	Tones/nullsilence.WAV
66.642	4.443	1	1	0.977	Semantic/ape.WAV	Semantic/monkey.WAV
71.085	4.443	1	1	1.756	Semantic/spoon.WAV	Semantic/fork.WAV
75.528	4.443	0	1	2.546	Tones/nullsilence.WAV	Tones/nullsilence.WAV
79.971	4.443	1	0	2.184	Semantic/awake.WAV	Semantic/asleep.WAV
84.414	4.442	0	1	3.277	Tones/nullsilence.WAV	Tones/nullsilence.WAV
88.856	4.443	2	1	2.093	Semantic/senate.WAV	Semantic/congress.WAV
93.299	4.443	0	0	n/a	Tones/nullsilence.WAV	Tones/nullsilence.WAV
97.742	4.443	3	1	2.225	Semantic/steam.WAV	Semantic/gap.WAV
102.185	4.443	0	1	2.366	Tones/nullsilence.WAV	Tones/nullsilence.WAV
106.628	4.443	2	1	1.659	Semantic/checkers.WAV	Semantic/chess.WAV
111.071	4.443	5	1	1.113	Tones/425600750.WAV	Tones/425600750.WAV
115.514	4.442	0	1	2.598	Tones/nullsilence.WAV	Tones/nullsilence.WAV
119.956	4.443	1	1	1.29	Semantic/rodent.WAV	Semantic/rat.WAV
124.399	4.443	2	1	0.974	Semantic/robber.WAV	Semantic/thief.WAV
128.842	4.443	3	1	1.036	Semantic/bone.WAV	Semantic/mountain.WAV
133.285	4.443	4	1	1.522	Tones/775.WAV	Tones/700.WAV
137.728	4.443	2	1	1.294	Semantic/purse.WAV	Semantic/wallet.WAV
142.171	4.442	0	1	1.627	Tones/nullsilence.WAV	Tones/nullsilence.WAV
146.613	4.443	2	0	1.258	Semantic/sunny.WAV	Semantic/cloudy.WAV
151.056	4.443	2	1	1.408	Semantic/hide.WAV	Semantic/seek.WAV
155.499	4.443	0	1	1.565	Tones/nullsilence.WAV	Tones/nullsilence.WAV
159.942	4.443	1	1	0.919	Semantic/mom.WAV	Semantic/dad.WAV
164.385	4.459	4	1	1.004	Tones/625.WAV	Tones/625.WAV
168.844	4.443	3	1	1.092	Semantic/joke.WAV	Semantic/chart.WAV
173.287	4.443	3	1	1.981	Semantic/heavy.WAV	Semantic/wish.WAV
177.73	4.442	3	1	1.179	Semantic/plug.WAV	Semantic/belly.WAV
182.172	4.443	0	1	1.871	Tones/nullsilence.WAV	Tones/nullsilence.WAV
186.615	4.443	3	0	2.678	Semantic/steer.WAV	Semantic/toss.WAV
191.058	4.443	2	1	1.113	Semantic/minus.WAV	Semantic/subtract.WAV
195.501	4.443	0	1	0.655	Tones/nullsilence.WAV	Tones/nullsilence.WAV
199.944	4.443	4	1	1.09	Tones/800.WAV	Tones/800.WAV
204.387	4.442	2	1	1.963	Semantic/fingers.WAV	Semantic/hands.WAV
208.829	4.443	4	1	0.99	Tones/375.WAV	Tones/450.WAV
213.272	4.443	0	1	2.231	Tones/nullsilence.WAV	Tones/nullsilence.WAV
217.715	4.443	5	0	1.405	Tones/550800525.WAV	Tones/550800600.WAV
222.158	4.443	0	1	1.118	Tones/nullsilence.WAV	Tones/nullsilence.WAV
226.601	4.443	4	1	1.236	Tones/650.WAV	Tones/575.WAV
231.044	4.442	0	1	1.712	Tones/nullsilence.WAV	Tones/nullsilence.WAV
235.486	4.443	3	1	2.033	Semantic/forgave.WAV	Semantic/maiden.WAV
239.929	4.443	0	1	1.541	Tones/nullsilence.WAV	Tones/nullsilence.WAV
244.372	4.443	1	1	1.328	Semantic/supper.WAV	Semantic/dinner.WAV
248.815	4.443	0	1	2.629	Tones/nullsilence.WAV	Tones/nullsilence.WAV
253.258	4.443	3	1	1.193	Semantic/flow.WAV	Semantic/teaching.WAV
257.701	4.442	3	1	1.151	Semantic/spongy.WAV	Semantic/madam.WAV
262.143	4.443	0	1	2.576	Tones/nullsilence.WAV	Tones/nullsilence.WAV
266.586	4.443	5	0	1.195	Tones/350825400.WAV	Tones/425825400.WAV
271.029	4.443	5	1	0.945	Tones/650475300.WAV	Tones/650475300.WAV
275.472	4.443	1	0	1.452	Semantic/hammer.WAV	Semantic/nail.WAV
279.915	4.443	2	0	n/a	Semantic/earth.WAV	Semantic/ground.WAV
284.358	4.443	5	0	2.247	Tones/425675500.WAV	Tones/425750500.WAV
288.801	4.442	0	1	1.26	Tones/nullsilence.WAV	Tones/nullsilence.WAV
293.243	4.443	4	1	1.108	Tones/300.WAV	Tones/375.WAV
297.686	4.443	0	1	1.031	Tones/nullsilence.WAV	Tones/nullsilence.WAV
302.129	4.443	2	1	1.071	Semantic/teach.WAV	Semantic/learn.WAV
306.572	4.443	0	1	1.376	Tones/nullsilence.WAV	Tones/nullsilence.WAV
311.015	4.443	1	1	2.319	Semantic/ship.WAV	Semantic/boat.WAV
315.458	4.442	0	1	1.369	Tones/nullsilence.WAV	Tones/nullsilence.WAV
319.9	4.443	1	0	1.242	Semantic/life.WAV	Semantic/death.WAV
324.343	4.443	0	1	1.261	Tones/nullsilence.WAV	Tones/nullsilence.WAV
328.786	4.443	2	1	1.264	Semantic/choir.WAV	Semantic/chorus.WAV
333.229	4.443	4	1	2.263	Tones/575.WAV	Tones/650.WAV
337.672	4.443	0	1	1.016	Tones/nullsilence.WAV	Tones/nullsilence.WAV
342.115	4.442	3	1	1.078	Semantic/note.WAV	Semantic/press.WAV
346.557	4.443	5	1	1.65	Tones/875575325.WAV	Tones/875575400.WAV
351.0	4.443	5	0	1.067	Tones/725400775.WAV	Tones/650400775.WAV
355.443	4.443	1	1	1.181	Semantic/jigsaw.WAV	Semantic/puzzle.WAV
359.886	4.443	0	1	1.935	Tones/nullsilence.WAV	Tones/nullsilence.WAV
364.329	4.443	1	0	n/a	Semantic/film.WAV	Semantic/movie.WAV
368.772	4.442	0	1	1.94	Tones/nullsilence.WAV	Tones/nullsilence.WAV
373.214	4.443	4	1	1.013	Tones/700.WAV	Tones/700.WAV
377.657	4.443	5	0	n/a	Tones/325500725.WAV	Tones/325500725.WAV
382.1	4.443	5	1	1.74	Tones/625450850.WAV	Tones/625450775.WAV
386.543	4.443	0	1	1.161	Tones/nullsilence.WAV	Tones/nullsilence.WAV
390.986	4.443	5	1	1.083	Tones/875675300.WAV	Tones/875675300.WAV
395.429	4.443	5	1	1.35	Tones/375750475.WAV	Tones/375750475.WAV
399.872	4.439	0	1	2.222	Tones/nullsilence.WAV	Tones/nullsilence.WAV
