onset	duration	trial_type	accuracy	response_time	stim1_file	stim2_file
0.0	4.443	2	1	1.051	RhymeSpell/crawl.WAV	RhymeSpell/ball.WAV
4.443	4.443	2	1	1.011	RhymeSpell/moan.WAV	RhymeSpell/bone.WAV
8.886	4.443	0	1	1.023	Tones/nullsilence.WAV	Tones/nullsilence.WAV
13.329	4.443	3	1	1.838	RhymeSpell/harm.WAV	RhymeSpell/warm.WAV
17.772	4.442	0	1	0.871	Tones/nullsilence.WAV	Tones/nullsilence.WAV
22.214	4.443	3	1	2.08	RhymeSpell/dull.WAV	RhymeSpell/pull.WAV
26.657	4.444	5	1	1.052	Tones/700.WAV	Tones/700.WAV
31.101	4.442	1	1	1.272	RhymeSpell/dime.WAV	RhymeSpell/lime.WAV
35.543	4.443	0	1	0.741	Tones/nullsilence.WAV	Tones/nullsilence.WAV
39.986	4.443	1	1	1.432	RhymeSpell/thread.WAV	RhymeSpell/dread.WAV
44.429	4.443	4	1	1.328	RhymeSpell/dash.WAV	RhymeSpell/brow.WAV
48.872	4.442	2	1	1.154	RhymeSpell/though.WAV	RhymeSpell/blow.WAV
53.314	4.443	2	1	0.881	RhymeSpell/greet.WAV	RhymeSpell/neat.WAV
57.757	4.443	0	1	1.077	Tones/nullsilence.WAV	Tones/nullsilence.WAV
62.2	4.443	1	1	1.044	RhymeSpell/mad.WAV	RhymeSpell/pad.WAV
66.643	4.443	0	1	0.815	Tones/nullsilence.WAV	Tones/nullsilence.WAV
71.086	4.443	5	1	1.325	Tones/450.WAV	Tones/525.WAV
75.529	4.442	0	1	0.858	Tones/nullsilence.WAV	Tones/nullsilence.WAV
79.971	4.443	3	1	1.469	RhymeSpell/tough.WAV	RhymeSpell/cough.WAV
84.414	4.443	6	1	0.97	Tones/350475625.WAV	Tones/350475625.WAV
88.857	4.443	1	1	1.158	RhymeSpell/drum.WAV	RhymeSpell/gum.WAV
93.3	4.443	0	1	1.04	Tones/nullsilence.WAV	Tones/nullsilence.WAV
97.743	4.443	5	1	1.759	Tones/825.WAV	Tones/750.WAV
102.186	4.442	5	1	1.009	Tones/875.WAV	Tones/875.WAV
106.628	4.443	2	0	1.748	RhymeSpell/comb.WAV	RhymeSpell/chrome.WAV
111.071	4.443	0	1	1.343	Tones/nullsilence.WAV	Tones/nullsilence.WAV
115.514	4.443	3	1	1.718	RhymeSpell/couch.WAV	RhymeSpell/touch.WAV
119.957	4.443	0	1	1.231	Tones/nullsilence.WAV	Tones/nullsilence.WAV
124.4	4.443	6	0	1.282	Tones/325575725.WAV	Tones/325500725.WAV
128.843	4.442	0	1	1.352	Tones/nullsilence.WAV	Tones/nullsilence.WAV
133.285	4.443	3	1	1.389	RhymeSpell/gull.WAV	RhymeSpell/bull.WAV
137.728	4.443	4	0	1.116	RhymeSpell/goes.WAV	RhymeSpell/lap.WAV
142.171	4.443	5	1	1.131	Tones/525.WAV	Tones/525.WAV
146.614	4.443	1	1	1.429	RhymeSpell/pay.WAV	RhymeSpell/play.WAV
151.057	4.443	0	1	1.175	Tones/nullsilence.WAV	Tones/nullsilence.WAV
155.5	4.442	4	1	1.251	RhymeSpell/staff.WAV	RhymeSpell/gain.WAV
159.942	4.443	5	1	0.935	Tones/425.WAV	Tones/425.WAV
164.385	4.443	0	1	1.078	Tones/nullsilence.WAV	Tones/nullsilence.WAV
168.828	4.443	4	1	2.07	RhymeSpell/scale.WAV	RhymeSpell/fly.WAV
173.271	4.443	0	1	0.977	Tones/nullsilence.WAV	Tones/nullsilence.WAV
177.714	4.443	6	1	1.262	Tones/425700850.WAV	Tones/425700775.WAV
182.157	4.443	0	1	0.893	Tones/nullsilence.WAV	Tones/nullsilence.WAV
186.6	4.442	1	1	1.405	RhymeSpell/hint.WAV	RhymeSpell/print.WAV
191.042	4.443	0	0	1.15	Tones/nullsilence.WAV	Tones/nullsilence.WAV
195.485	4.443	6	1	1.81	Tones/525800450.WAV	Tones/525800450.WAV
199.928	4.443	0	1	1.03	Tones/nullsilence.WAV	Tones/nullsilence.WAV
204.371	4.443	5	1	1.251	Tones/400.WAV	Tones/400.WAV
208.814	4.443	0	1	0.872	Tones/nullsilence.WAV	Tones/nullsilence.WAV
213.257	4.442	3	1	1.163	RhymeSpell/foot.WAV	RhymeSpell/hoot.WAV
217.699	4.443	0	1	0.141	Tones/nullsilence.WAV	Tones/nullsilence.WAV
222.142	4.443	3	1	2.358	RhymeSpell/glove.WAV	RhymeSpell/drove.WAV
226.585	4.443	0	1	0.998	Tones/nullsilence.WAV	Tones/nullsilence.WAV
231.028	4.443	2	1	1.211	RhymeSpell/trade.WAV	RhymeSpell/paid.WAV
235.471	4.443	3	1	2.164	RhymeSpell/moth.WAV	RhymeSpell/both.WAV
239.914	4.442	4	0	1.121	RhymeSpell/start.WAV	RhymeSpell/pure.WAV
244.356	4.443	6	1	1.208	Tones/600550400.WAV	Tones/675550400.WAV
248.799	4.443	0	1	1.097	Tones/nullsilence.WAV	Tones/nullsilence.WAV
253.242	4.443	5	1	0.978	Tones/500.WAV	Tones/500.WAV
257.685	4.443	0	1	1.074	Tones/nullsilence.WAV	Tones/nullsilence.WAV
262.128	4.443	6	0	1.071	Tones/450650850.WAV	Tones/375650850.WAV
266.571	4.442	0	1	0.998	Tones/nullsilence.WAV	Tones/nullsilence.WAV
271.013	4.443	1	1	1.507	RhymeSpell/wall.WAV	RhymeSpell/tall.WAV
275.456	4.443	0	1	1.159	Tones/nullsilence.WAV	Tones/nullsilence.WAV
279.899	4.443	2	1	1.153	RhymeSpell/glad.WAV	RhymeSpell/plaid.WAV
284.342	4.443	0	1	0.894	Tones/nullsilence.WAV	Tones/nullsilence.WAV
288.785	4.443	5	0	1.282	Tones/725.WAV	Tones/650.WAV
293.228	4.442	0	1	1.774	Tones/nullsilence.WAV	Tones/nullsilence.WAV
297.67	4.443	4	1	1.835	RhymeSpell/strut.WAV	RhymeSpell/glint.WAV
302.113	4.443	2	1	1.038	RhymeSpell/sheet.WAV	RhymeSpell/heat.WAV
306.556	4.443	6	1	1.21	Tones/750300700.WAV	Tones/750300700.WAV
310.999	4.443	2	1	1.24	RhymeSpell/whom.WAV	RhymeSpell/womb.WAV
315.442	4.443	4	1	1.036	RhymeSpell/spare.WAV	RhymeSpell/cow.WAV
319.885	4.442	0	1	0.912	Tones/nullsilence.WAV	Tones/nullsilence.WAV
324.327	4.443	3	1	2.705	RhymeSpell/fat.WAV	RhymeSpell/swat.WAV
328.77	4.443	4	0	1.291	RhymeSpell/team.WAV	RhymeSpell/brief.WAV
333.213	4.443	0	1	1.029	Tones/nullsilence.WAV	Tones/nullsilence.WAV
337.656	4.443	5	1	1.264	Tones/550.WAV	Tones/550.WAV
342.099	4.443	0	1	1.421	Tones/nullsilence.WAV	Tones/nullsilence.WAV
346.542	4.443	3	0	3.197	RhymeSpell/bad.WAV	RhymeSpell/wad.WAV
350.985	4.442	1	1	0.841	RhymeSpell/glare.WAV	RhymeSpell/share.WAV
355.427	4.443	0	1	1.001	Tones/nullsilence.WAV	Tones/nullsilence.WAV
359.87	4.443	1	1	2.013	RhymeSpell/cold.WAV	RhymeSpell/told.WAV
364.313	4.443	6	1	1.168	Tones/775625825.WAV	Tones/775625825.WAV
368.756	4.443	1	1	0.967	RhymeSpell/dawn.WAV	RhymeSpell/lawn.WAV
373.199	4.443	1	1	1.193	RhymeSpell/broke.WAV	RhymeSpell/joke.WAV
377.642	4.442	4	1	1.017	RhymeSpell/craft.WAV	RhymeSpell/young.WAV
382.084	4.443	0	1	1.071	Tones/nullsilence.WAV	Tones/nullsilence.WAV
386.527	4.443	3	0	2.723	RhymeSpell/hull.WAV	RhymeSpell/full.WAV
390.97	4.443	3	1	1.214	RhymeSpell/freight.WAV	RhymeSpell/height.WAV
395.413	4.443	5	1	1.518	Tones/750.WAV	Tones/675.WAV
399.856	4.443	2	1	1.842	RhymeSpell/stool.WAV	RhymeSpell/ghoul.WAV
404.299	4.442	2	1	1.482	RhymeSpell/hoe.WAV	RhymeSpell/throw.WAV
408.741	4.443	0	1	1.375	Tones/nullsilence.WAV	Tones/nullsilence.WAV
413.184	4.443	6	1	0.875	Tones/875675500.WAV	Tones/875675500.WAV
417.627	4.443	3	0	2.22	RhymeSpell/cost.WAV	RhymeSpell/ghost.WAV
422.07	4.443	0	1	1.019	Tones/nullsilence.WAV	Tones/nullsilence.WAV
426.513	4.443	6	1	1.301	Tones/650350575.WAV	Tones/650350575.WAV
430.956	4.442	2	1	1.06	RhymeSpell/gas.WAV	RhymeSpell/pass.WAV
435.398	4.443	3	1	1.049	RhymeSpell/blood.WAV	RhymeSpell/wood.WAV
439.841	4.443	0	1	1.111	Tones/nullsilence.WAV	Tones/nullsilence.WAV
444.284	4.443	4	1	2.026	RhymeSpell/vend.WAV	RhymeSpell/space.WAV
448.727	4.443	2	1	1.203	RhymeSpell/choose.WAV	RhymeSpell/lose.WAV
453.17	4.443	6	0	1.438	Tones/700550775.WAV	Tones/700475775.WAV
457.613	4.442	0	0	n/a	Tones/nullsilence.WAV	Tones/nullsilence.WAV
462.055	4.443	6	0	1.124	Tones/825600375.WAV	Tones/825675375.WAV
466.498	4.443	5	1	1.016	Tones/475.WAV	Tones/550.WAV
470.941	4.443	0	1	0.969	Tones/nullsilence.WAV	Tones/nullsilence.WAV
475.384	4.439	0	1	1.145	Tones/nullsilence.WAV	Tones/nullsilence.WAV
