onset	duration	trial_type	accuracy	response_time	stim1_file	stim2_file
0.0	4.654	4	0	2.618	Tones/450.WAV	Tones/525.WAV
4.654	4.443	2	1	2.913	Semantic/human.WAV	Semantic/person.WAV
9.097	4.443	0	1	1.719	Tones/nullsilence.WAV	Tones/nullsilence.WAV
13.54	4.443	4	0	1.783	Tones/825.WAV	Tones/750.WAV
17.983	4.442	5	0	2.321	Tones/375800525.WAV	Tones/375800525.WAV
22.425	4.443	0	1	2.605	Tones/nullsilence.WAV	Tones/nullsilence.WAV
26.868	4.443	5	1	2.518	Tones/350475625.WAV	Tones/350475625.WAV
31.311	4.443	4	1	1.916	Tones/875.WAV	Tones/875.WAV
35.754	4.443	4	0	n/a	Tones/525.WAV	Tones/525.WAV
40.197	4.443	0	0	n/a	Tones/nullsilence.WAV	Tones/nullsilence.WAV
44.64	4.442	1	0	n/a	Semantic/web.WAV	Semantic/spider.WAV
49.082	4.443	2	1	1.945	Semantic/dig.WAV	Semantic/shovel.WAV
53.525	4.443	0	1	2.823	Tones/nullsilence.WAV	Tones/nullsilence.WAV
57.968	4.443	3	1	2.364	Semantic/trade.WAV	Semantic/square.WAV
62.411	4.443	5	0	n/a	Tones/325575725.WAV	Tones/325500725.WAV
66.854	4.443	1	1	1.04	Semantic/murder.WAV	Semantic/kill.WAV
71.297	4.442	0	1	3.172	Tones/nullsilence.WAV	Tones/nullsilence.WAV
75.739	4.443	1	0	n/a	Semantic/trash.WAV	Semantic/garbage.WAV
80.182	4.443	0	0	n/a	Tones/nullsilence.WAV	Tones/nullsilence.WAV
84.625	4.443	1	1	2.023	Semantic/tall.WAV	Semantic/short.WAV
89.068	4.443	0	0	n/a	Tones/nullsilence.WAV	Tones/nullsilence.WAV
93.511	4.443	2	0	1.163	Semantic/raisin.WAV	Semantic/prune.WAV
97.954	4.443	0	1	3.196	Tones/nullsilence.WAV	Tones/nullsilence.WAV
102.397	4.442	1	0	n/a	Semantic/baggage.WAV	Semantic/luggage.WAV
106.839	4.443	0	1	3.165	Tones/nullsilence.WAV	Tones/nullsilence.WAV
111.282	4.443	2	0	n/a	Semantic/picture.WAV	Semantic/painting.WAV
115.725	4.443	2	1	2.381	Semantic/truth.WAV	Semantic/honest.WAV
120.168	4.443	0	1	2.419	Tones/nullsilence.WAV	Tones/nullsilence.WAV
124.611	4.443	3	1	2.89	Semantic/gently.WAV	Semantic/ceiling.WAV
129.054	4.442	0	0	n/a	Tones/nullsilence.WAV	Tones/nullsilence.WAV
133.496	4.443	4	0	3.028	Tones/425.WAV	Tones/425.WAV
137.939	4.443	0	1	3.034	Tones/nullsilence.WAV	Tones/nullsilence.WAV
142.382	4.443	1	0	1.5	Semantic/buyer.WAV	Semantic/seller.WAV
146.825	4.443	1	0	3.057	Semantic/insect.WAV	Semantic/bug.WAV
151.268	4.443	2	0	n/a	Semantic/cactus.WAV	Semantic/prickly.WAV
155.711	4.442	0	0	n/a	Tones/nullsilence.WAV	Tones/nullsilence.WAV
160.153	4.443	1	1	1.413	Semantic/big.WAV	Semantic/small.WAV
164.596	4.443	0	1	1.978	Tones/nullsilence.WAV	Tones/nullsilence.WAV
169.039	4.443	3	0	n/a	Semantic/stack.WAV	Semantic/chef.WAV
173.482	4.443	0	0	0.042	Tones/nullsilence.WAV	Tones/nullsilence.WAV
177.925	4.443	3	0	3.236	Semantic/headed.WAV	Semantic/thirty.WAV
182.368	4.442	0	1	3.218	Tones/nullsilence.WAV	Tones/nullsilence.WAV
186.81	4.443	1	0	n/a	Semantic/summer.WAV	Semantic/winter.WAV
191.253	4.443	4	0	n/a	Tones/400.WAV	Tones/400.WAV
195.696	4.443	0	0	n/a	Tones/nullsilence.WAV	Tones/nullsilence.WAV
200.139	4.443	1	1	1.53	Semantic/itch.WAV	Semantic/scratch.WAV
204.582	4.443	4	0	n/a	Tones/500.WAV	Tones/500.WAV
209.025	4.442	3	0	n/a	Semantic/turtle.WAV	Semantic/boom.WAV
213.467	4.443	0	0	n/a	Tones/nullsilence.WAV	Tones/nullsilence.WAV
217.91	4.443	5	0	n/a	Tones/425700850.WAV	Tones/425700775.WAV
222.353	4.443	0	1	2.785	Tones/nullsilence.WAV	Tones/nullsilence.WAV
226.796	4.443	4	1	3.012	Tones/725.WAV	Tones/650.WAV
231.239	4.443	1	0	1.765	Semantic/bunny.WAV	Semantic/rabbit.WAV
235.682	4.443	2	0	n/a	Semantic/sneeze.WAV	Semantic/cough.WAV
240.125	4.442	3	1	1.216	Semantic/secret.WAV	Semantic/tone.WAV
244.567	4.443	1	0	1.113	Semantic/fuel.WAV	Semantic/gas.WAV
249.01	4.443	0	1	1.237	Tones/nullsilence.WAV	Tones/nullsilence.WAV
253.453	4.443	3	1	2.639	Semantic/lord.WAV	Semantic/oil.WAV
257.896	4.443	2	1	2.961	Semantic/sly.WAV	Semantic/sneaky.WAV
262.339	4.443	0	1	0.797	Tones/nullsilence.WAV	Tones/nullsilence.WAV
266.782	4.442	0	1	2.308	Tones/nullsilence.WAV	Tones/nullsilence.WAV
271.224	4.443	3	1	3.001	Semantic/pirate.WAV	Semantic/bandage.WAV
275.667	4.443	4	0	n/a	Tones/550.WAV	Tones/550.WAV
280.11	4.443	0	0	n/a	Tones/nullsilence.WAV	Tones/nullsilence.WAV
284.553	4.443	5	0	2.146	Tones/525800450.WAV	Tones/525800450.WAV
288.996	4.443	2	0	n/a	Semantic/call.WAV	Semantic/phone.WAV
293.439	4.442	0	0	n/a	Tones/nullsilence.WAV	Tones/nullsilence.WAV
297.881	4.443	1	0	n/a	Semantic/handbag.WAV	Semantic/purse.WAV
302.324	4.443	2	1	2.346	Semantic/pimple.WAV	Semantic/zit.WAV
306.767	4.443	0	1	2.882	Tones/nullsilence.WAV	Tones/nullsilence.WAV
311.21	4.443	5	1	2.995	Tones/600550400.WAV	Tones/675550400.WAV
315.653	4.443	4	0	2.678	Tones/750.WAV	Tones/675.WAV
320.096	4.442	0	0	n/a	Tones/nullsilence.WAV	Tones/nullsilence.WAV
324.538	4.443	3	1	2.706	Semantic/mansion.WAV	Semantic/super.WAV
328.981	4.443	2	1	2.424	Semantic/skunk.WAV	Semantic/stink.WAV
333.424	4.443	0	0	n/a	Tones/nullsilence.WAV	Tones/nullsilence.WAV
337.867	4.443	5	0	2.867	Tones/450650850.WAV	Tones/375650850.WAV
342.31	4.443	0	0	n/a	Tones/nullsilence.WAV	Tones/nullsilence.WAV
346.753	4.442	5	0	2.411	Tones/750300700.WAV	Tones/750300700.WAV
351.195	4.443	5	0	n/a	Tones/775625825.WAV	Tones/775625825.WAV
355.638	4.443	5	1	0.953	Tones/875675500.WAV	Tones/875675500.WAV
360.081	4.443	0	1	2.385	Tones/nullsilence.WAV	Tones/nullsilence.WAV
364.524	4.443	5	1	2.075	Tones/650350575.WAV	Tones/650350575.WAV
368.967	4.443	5	0	1.489	Tones/700550775.WAV	Tones/700475775.WAV
373.41	4.443	3	0	n/a	Semantic/spell.WAV	Semantic/dim.WAV
377.853	4.442	3	1	1.912	Semantic/bacon.WAV	Semantic/wipe.WAV
382.295	4.443	4	0	2.841	Tones/475.WAV	Tones/550.WAV
386.738	4.443	5	1	1.952	Tones/825600375.WAV	Tones/825675375.WAV
391.181	4.439	0	1	1.813	Tones/nullsilence.WAV	Tones/nullsilence.WAV
