onset	duration	trial_type	accuracy	response_time	stim1_file	stim2_file
0.0	4.443	2	1	1.238	RhymeSpell/crawl.bmp	RhymeSpell/ball1.bmp
4.443	4.443	2	1	1.091	RhymeSpell/moan.bmp	RhymeSpell/bone1.bmp
8.886	4.443	0	1	1.118	RhymeSpell/null.bmp	RhymeSpell/null.bmp
13.329	4.443	3	1	1.214	RhymeSpell/harm.bmp	RhymeSpell/warm2.bmp
17.772	4.443	0	1	1.238	RhymeSpell/null.bmp	RhymeSpell/null.bmp
22.215	4.442	3	1	0.933	RhymeSpell/dull.bmp	RhymeSpell/pull2.bmp
26.657	4.443	5	1	1.021	Symbols/m.bmp	Symbols/m2.bmp
31.1	4.443	1	1	1.14	RhymeSpell/dime.bmp	RhymeSpell/lime1.bmp
35.543	4.443	0	1	1.169	RhymeSpell/null.bmp	RhymeSpell/null.bmp
39.986	4.443	1	1	1.124	RhymeSpell/thread.bmp	RhymeSpell/dread2.bmp
44.429	4.443	4	1	1.167	RhymeSpell/dash.bmp	RhymeSpell/brow1.bmp
48.872	4.442	2	1	0.979	RhymeSpell/though.bmp	RhymeSpell/blow2.bmp
53.314	4.443	2	1	1.186	RhymeSpell/greet.bmp	RhymeSpell/neat1.bmp
57.757	4.443	0	1	1.113	RhymeSpell/null.bmp	RhymeSpell/null.bmp
62.2	4.443	1	1	1.075	RhymeSpell/mad.bmp	RhymeSpell/pad2.bmp
66.643	4.443	0	1	1.218	RhymeSpell/null.bmp	RhymeSpell/null.bmp
71.086	4.443	5	1	1.005	Symbols/z.bmp	Symbols/t1.bmp
75.529	4.442	0	1	1.168	RhymeSpell/null.bmp	RhymeSpell/null.bmp
79.971	4.443	3	1	1.08	RhymeSpell/tough.bmp	RhymeSpell/cough2.bmp
84.414	4.443	6	0	1.235	Symbols/lfa.bmp	Symbols/lfa1.bmp
88.857	4.443	1	1	1.11	RhymeSpell/drum.bmp	RhymeSpell/gum1.bmp
93.3	4.443	0	1	1.046	RhymeSpell/null.bmp	RhymeSpell/null.bmp
97.743	4.443	5	1	1.125	Symbols/j.bmp	Symbols/o1.bmp
102.186	4.443	5	1	1.053	Symbols/b.bmp	Symbols/b2.bmp
106.629	4.442	2	1	1.241	RhymeSpell/comb.bmp	RhymeSpell/chrome2.bmp
111.071	4.443	0	1	1.162	RhymeSpell/null.bmp	RhymeSpell/null.bmp
115.514	4.443	3	1	1.024	RhymeSpell/couch.bmp	RhymeSpell/touch1.bmp
119.957	4.443	0	1	1.303	RhymeSpell/null.bmp	RhymeSpell/null.bmp
124.4	4.443	6	1	1.153	Symbols/zti.bmp	Symbols/zvi1.bmp
128.843	4.443	0	1	1.13	RhymeSpell/null.bmp	RhymeSpell/null.bmp
133.286	4.442	3	1	1.366	RhymeSpell/gull.bmp	RhymeSpell/bull2.bmp
137.728	4.443	4	1	1.211	RhymeSpell/goes.bmp	RhymeSpell/lap2.bmp
142.171	4.443	5	1	1.06	Symbols/y.bmp	Symbols/y1.bmp
146.614	4.443	1	1	1.187	RhymeSpell/pay.bmp	RhymeSpell/play2.bmp
151.057	4.443	0	1	1.103	RhymeSpell/null.bmp	RhymeSpell/null.bmp
155.5	4.443	4	1	1.077	RhymeSpell/staff.bmp	RhymeSpell/gain2.bmp
159.943	4.442	5	1	1.083	Symbols/a.bmp	Symbols/a1.bmp
164.385	4.443	0	1	1.12	RhymeSpell/null.bmp	RhymeSpell/null.bmp
168.828	4.443	4	1	1.017	RhymeSpell/scale.bmp	RhymeSpell/fly2.bmp
173.271	4.443	0	1	1.181	RhymeSpell/null.bmp	RhymeSpell/null.bmp
177.714	4.443	6	1	1.065	Symbols/drp.bmp	Symbols/drn1.bmp
182.157	4.443	0	1	1.292	RhymeSpell/null.bmp	RhymeSpell/null.bmp
186.6	4.442	1	1	1.092	RhymeSpell/hint.bmp	RhymeSpell/print1.bmp
191.042	4.443	0	1	1.186	RhymeSpell/null.bmp	RhymeSpell/null.bmp
195.485	4.443	6	1	1.032	Symbols/ntv.bmp	Symbols/ntv2.bmp
199.928	4.443	0	1	1.219	RhymeSpell/null.bmp	RhymeSpell/null.bmp
204.371	4.443	5	1	1.096	Symbols/e.bmp	Symbols/e1.bmp
208.814	4.443	0	1	1.287	RhymeSpell/null.bmp	RhymeSpell/null.bmp
213.257	4.442	3	0	1.193	RhymeSpell/foot.bmp	RhymeSpell/hoot1.bmp
217.699	4.443	0	1	1.199	RhymeSpell/null.bmp	RhymeSpell/null.bmp
222.142	4.443	3	1	1.127	RhymeSpell/glove.bmp	RhymeSpell/drove2.bmp
226.585	4.443	0	1	1.141	RhymeSpell/null.bmp	RhymeSpell/null.bmp
231.028	4.443	2	1	1.119	RhymeSpell/trade.bmp	RhymeSpell/paid2.bmp
235.471	4.443	3	1	1.166	RhymeSpell/moth.bmp	RhymeSpell/both2.bmp
239.914	4.443	4	1	1.253	RhymeSpell/start.bmp	RhymeSpell/pure2.bmp
244.357	4.442	6	1	1.083	Symbols/gbk.bmp	Symbols/rbk2.bmp
248.799	4.443	0	1	1.164	RhymeSpell/null.bmp	RhymeSpell/null.bmp
253.242	4.443	5	1	1.12	Symbols/f.bmp	Symbols/f1.bmp
257.685	4.443	0	1	1.122	RhymeSpell/null.bmp	RhymeSpell/null.bmp
262.128	4.443	6	1	1.062	Symbols/zsj.bmp	Symbols/wsj1.bmp
266.571	4.443	0	1	1.179	RhymeSpell/null.bmp	RhymeSpell/null.bmp
271.014	4.442	1	1	1.127	RhymeSpell/wall.bmp	RhymeSpell/tall1.bmp
275.456	4.443	0	1	1.183	RhymeSpell/null.bmp	RhymeSpell/null.bmp
279.899	4.443	2	0	1.261	RhymeSpell/glad.bmp	RhymeSpell/plaid1.bmp
284.342	4.443	0	1	1.239	RhymeSpell/null.bmp	RhymeSpell/null.bmp
288.785	4.443	5	1	1.111	Symbols/o.bmp	Symbols/d1.bmp
293.228	4.443	0	1	1.25	RhymeSpell/null.bmp	RhymeSpell/null.bmp
297.671	4.442	4	1	1.084	RhymeSpell/strut.bmp	RhymeSpell/glint2.bmp
302.113	4.443	2	1	1.049	RhymeSpell/sheet.bmp	RhymeSpell/heat1.bmp
306.556	4.443	6	1	1.151	Symbols/lwy.bmp	Symbols/lwy1.bmp
310.999	4.443	2	1	1.117	RhymeSpell/whom.bmp	RhymeSpell/womb1.bmp
315.442	4.443	4	1	1.152	RhymeSpell/spare.bmp	RhymeSpell/cow1.bmp
319.885	4.443	0	1	1.146	RhymeSpell/null.bmp	RhymeSpell/null.bmp
324.328	4.442	3	1	1.223	RhymeSpell/fat.bmp	RhymeSpell/swat2.bmp
328.77	4.443	4	1	1.171	RhymeSpell/team.bmp	RhymeSpell/brief2.bmp
333.213	4.443	0	1	1.445	RhymeSpell/null.bmp	RhymeSpell/null.bmp
337.656	4.443	5	1	1.161	Symbols/k.bmp	Symbols/k1.bmp
342.099	4.443	0	1	1.155	RhymeSpell/null.bmp	RhymeSpell/null.bmp
346.542	4.443	3	0	1.328	RhymeSpell/bad.bmp	RhymeSpell/wad2.bmp
350.985	4.443	1	1	1.106	RhymeSpell/glare.bmp	RhymeSpell/share1.bmp
355.428	4.442	0	1	1.127	RhymeSpell/null.bmp	RhymeSpell/null.bmp
359.87	4.443	1	1	1.112	RhymeSpell/cold.bmp	RhymeSpell/told1.bmp
364.313	4.443	6	1	0.971	Symbols/lik.bmp	Symbols/lik1.bmp
368.756	4.443	1	1	1.075	RhymeSpell/dawn.bmp	RhymeSpell/lawn1.bmp
373.199	4.443	1	1	1.08	RhymeSpell/broke.bmp	RhymeSpell/joke1.bmp
377.642	4.443	4	1	1.044	RhymeSpell/craft.bmp	RhymeSpell/young1.bmp
382.085	4.442	0	1	1.169	RhymeSpell/null.bmp	RhymeSpell/null.bmp
386.527	4.443	3	0	1.081	RhymeSpell/hull.bmp	RhymeSpell/full1.bmp
390.97	4.443	3	1	1.061	RhymeSpell/freight.bmp	RhymeSpell/height2.bmp
395.413	4.443	5	1	1.224	Symbols/g.bmp	Symbols/p2.bmp
399.856	4.443	2	1	1.152	RhymeSpell/stool.bmp	RhymeSpell/ghoul1.bmp
404.299	4.443	2	1	1.008	RhymeSpell/hoe.bmp	RhymeSpell/throw2.bmp
408.742	4.442	0	1	1.139	RhymeSpell/null.bmp	RhymeSpell/null.bmp
413.184	4.443	6	1	1.11	Symbols/one.bmp	Symbols/one2.bmp
417.627	4.443	3	1	1.043	RhymeSpell/cost.bmp	RhymeSpell/ghost2.bmp
422.07	4.443	0	1	1.205	RhymeSpell/null.bmp	RhymeSpell/null.bmp
426.513	4.443	6	1	0.972	Symbols/hvj.bmp	Symbols/hvj1.bmp
430.956	4.443	2	1	1.205	RhymeSpell/gas.bmp	RhymeSpell/pass1.bmp
435.399	4.442	3	1	1.24	RhymeSpell/blood.bmp	RhymeSpell/wood1.bmp
439.841	4.443	0	1	1.185	RhymeSpell/null.bmp	RhymeSpell/null.bmp
444.284	4.443	4	1	0.98	RhymeSpell/vend.bmp	RhymeSpell/space1.bmp
448.727	4.443	2	1	1.303	RhymeSpell/choose.bmp	RhymeSpell/lose2.bmp
453.17	4.443	6	1	0.997	Symbols/rbe.bmp	Symbols/rte1.bmp
457.613	4.443	0	1	1.067	RhymeSpell/null.bmp	RhymeSpell/null.bmp
462.056	4.443	6	1	1.187	Symbols/wug.bmp	Symbols/wyg2.bmp
466.499	4.442	5	1	1.34	Symbols/d.bmp	Symbols/r2.bmp
470.941	4.443	0	1	1.185	RhymeSpell/null.bmp	RhymeSpell/null.bmp
475.384	4.439	0	1	1.237	RhymeSpell/null.bmp	RhymeSpell/null.bmp
