onset	duration	trial_type	accuracy	response_time	stim1_file	stim2_file
0.0	4.443	3	1	0.989	RhymeSpell/mouth.WAV	RhymeSpell/youth.WAV
4.443	4.443	2	1	0.969	RhymeSpell/tone.WAV	RhymeSpell/known.WAV
8.886	4.443	5	1	0.892	Tones/675.WAV	Tones/600.WAV
13.329	4.442	0	1	1.027	Tones/nullsilence.WAV	Tones/nullsilence.WAV
17.771	4.443	3	1	0.848	RhymeSpell/pool.WAV	RhymeSpell/wool.WAV
22.214	4.443	0	1	0.844	Tones/nullsilence.WAV	Tones/nullsilence.WAV
26.657	4.443	5	1	1.01	Tones/600.WAV	Tones/600.WAV
31.1	4.443	5	1	1.104	Tones/325.WAV	Tones/325.WAV
35.543	4.443	1	1	1.113	RhymeSpell/meal.WAV	RhymeSpell/seal.WAV
39.986	4.442	0	1	1.076	Tones/nullsilence.WAV	Tones/nullsilence.WAV
44.428	4.459	3	1	0.889	RhymeSpell/low.WAV	RhymeSpell/vow.WAV
48.887	4.443	6	1	0.861	Tones/425600750.WAV	Tones/425600750.WAV
53.33	4.443	0	1	1.209	Tones/nullsilence.WAV	Tones/nullsilence.WAV
57.773	4.443	0	1	0.961	Tones/nullsilence.WAV	Tones/nullsilence.WAV
62.216	4.443	4	1	0.999	RhymeSpell/wrist.WAV	RhymeSpell/friend.WAV
66.659	4.443	4	1	0.992	RhymeSpell/halt.WAV	RhymeSpell/stain.WAV
71.102	4.443	0	1	1.142	Tones/nullsilence.WAV	Tones/nullsilence.WAV
75.545	4.442	6	0	1.014	Tones/550800525.WAV	Tones/550800600.WAV
79.987	4.443	6	0	0.86	Tones/350825400.WAV	Tones/425825400.WAV
84.43	4.443	0	1	1.089	Tones/nullsilence.WAV	Tones/nullsilence.WAV
88.873	4.443	1	1	0.983	RhymeSpell/cure.WAV	RhymeSpell/sure.WAV
93.316	4.443	2	1	0.998	RhymeSpell/sleek.WAV	RhymeSpell/speak.WAV
97.759	4.443	0	1	1.002	Tones/nullsilence.WAV	Tones/nullsilence.WAV
102.202	4.442	4	1	0.887	RhymeSpell/trust.WAV	RhymeSpell/chalk.WAV
106.644	4.443	2	1	0.768	RhymeSpell/street.WAV	RhymeSpell/wheat.WAV
111.087	4.443	0	1	1.097	Tones/nullsilence.WAV	Tones/nullsilence.WAV
115.53	4.443	6	1	0.936	Tones/650475300.WAV	Tones/650475300.WAV
119.973	4.443	6	0	0.94	Tones/425675500.WAV	Tones/425750500.WAV
124.416	4.443	0	1	1.012	Tones/nullsilence.WAV	Tones/nullsilence.WAV
128.859	4.442	5	1	0.846	Tones/350.WAV	Tones/425.WAV
133.301	4.443	0	1	1.098	Tones/nullsilence.WAV	Tones/nullsilence.WAV
137.744	4.443	2	1	1.014	RhymeSpell/rear.WAV	RhymeSpell/mere.WAV
142.187	4.443	1	1	0.974	RhymeSpell/crown.WAV	RhymeSpell/town.WAV
146.63	4.443	3	1	0.877	RhymeSpell/sword.WAV	RhymeSpell/word.WAV
151.073	4.443	6	1	0.904	Tones/875575325.WAV	Tones/875575400.WAV
155.516	4.442	3	1	0.727	RhymeSpell/head.WAV	RhymeSpell/bead.WAV
159.958	4.443	0	1	1.043	Tones/nullsilence.WAV	Tones/nullsilence.WAV
164.401	4.443	5	1	0.815	Tones/850.WAV	Tones/850.WAV
168.844	4.443	0	1	1.096	Tones/nullsilence.WAV	Tones/nullsilence.WAV
173.287	4.443	6	0	0.92	Tones/725400775.WAV	Tones/650400775.WAV
177.73	4.443	2	1	0.879	RhymeSpell/size.WAV	RhymeSpell/wise.WAV
182.173	4.443	4	1	0.745	RhymeSpell/clash.WAV	RhymeSpell/worse.WAV
186.616	4.442	5	1	0.815	Tones/775.WAV	Tones/700.WAV
191.058	4.443	0	1	1.109	Tones/nullsilence.WAV	Tones/nullsilence.WAV
195.501	4.443	0	1	1.082	Tones/nullsilence.WAV	Tones/nullsilence.WAV
199.944	4.443	4	1	0.887	RhymeSpell/loose.WAV	RhymeSpell/drew.WAV
204.387	4.443	0	1	0.879	Tones/nullsilence.WAV	Tones/nullsilence.WAV
208.83	4.443	4	1	0.815	RhymeSpell/yeast.WAV	RhymeSpell/tooth.WAV
213.273	4.442	0	1	0.974	Tones/nullsilence.WAV	Tones/nullsilence.WAV
217.715	4.443	3	1	0.815	RhymeSpell/shove.WAV	RhymeSpell/wove.WAV
222.158	4.443	5	1	1.04	Tones/625.WAV	Tones/625.WAV
226.601	4.443	2	1	0.967	RhymeSpell/chair.WAV	RhymeSpell/scare.WAV
231.044	4.443	0	1	1.063	Tones/nullsilence.WAV	Tones/nullsilence.WAV
235.487	4.443	1	1	0.86	RhymeSpell/dad.WAV	RhymeSpell/sad.WAV
239.93	4.442	0	1	1.025	Tones/nullsilence.WAV	Tones/nullsilence.WAV
244.372	4.443	4	1	0.867	RhymeSpell/beef.WAV	RhymeSpell/keep.WAV
248.815	4.443	3	1	0.815	RhymeSpell/broad.WAV	RhymeSpell/toad.WAV
253.258	4.443	0	1	1.099	Tones/nullsilence.WAV	Tones/nullsilence.WAV
257.701	4.443	0	1	0.993	Tones/nullsilence.WAV	Tones/nullsilence.WAV
262.144	4.443	4	1	0.781	RhymeSpell/rail.WAV	RhymeSpell/fast.WAV
266.587	4.442	0	1	1.073	Tones/nullsilence.WAV	Tones/nullsilence.WAV
271.029	4.443	1	1	0.9	RhymeSpell/leg.WAV	RhymeSpell/peg.WAV
275.472	4.443	1	0	1.031	RhymeSpell/mule.WAV	RhymeSpell/rule.WAV
279.915	4.443	6	1	0.94	Tones/325500725.WAV	Tones/325500725.WAV
284.358	4.443	6	0	0.815	Tones/625450850.WAV	Tones/625450775.WAV
288.801	4.443	0	1	0.719	Tones/nullsilence.WAV	Tones/nullsilence.WAV
293.244	4.442	4	1	0.853	RhymeSpell/storm.WAV	RhymeSpell/chose.WAV
297.686	4.443	0	1	1.048	Tones/nullsilence.WAV	Tones/nullsilence.WAV
302.129	4.443	2	1	0.784	RhymeSpell/prize.WAV	RhymeSpell/rise.WAV
306.572	4.443	0	1	1.182	Tones/nullsilence.WAV	Tones/nullsilence.WAV
311.015	4.443	1	1	0.834	RhymeSpell/fought.WAV	RhymeSpell/sought.WAV
315.458	4.443	4	1	0.815	RhymeSpell/wage.WAV	RhymeSpell/spice.WAV
319.901	4.443	1	1	0.873	RhymeSpell/beast.WAV	RhymeSpell/least.WAV
324.344	4.719	5	1	0.897	Tones/800.WAV	Tones/800.WAV
329.063	4.443	5	1	0.722	Tones/375.WAV	Tones/450.WAV
333.506	4.443	0	1	1.233	Tones/nullsilence.WAV	Tones/nullsilence.WAV
337.949	4.443	4	1	0.883	RhymeSpell/dome.WAV	RhymeSpell/fool.WAV
342.392	4.442	0	1	0.889	Tones/nullsilence.WAV	Tones/nullsilence.WAV
346.834	4.443	1	1	1.027	RhymeSpell/grant.WAV	RhymeSpell/slant.WAV
351.277	4.443	1	1	0.907	RhymeSpell/numb.WAV	RhymeSpell/thumb.WAV
355.72	4.443	1	1	0.748	RhymeSpell/chess.WAV	RhymeSpell/press.WAV
360.163	4.443	6	1	1.04	Tones/875675300.WAV	Tones/875675300.WAV
364.606	4.443	3	1	0.731	RhymeSpell/damp.WAV	RhymeSpell/swamp.WAV
369.049	4.442	2	1	0.709	RhymeSpell/true.WAV	RhymeSpell/grew.WAV
373.491	4.443	0	1	1.027	Tones/nullsilence.WAV	Tones/nullsilence.WAV
377.934	4.443	5	1	0.815	Tones/650.WAV	Tones/575.WAV
382.377	4.443	3	1	0.849	RhymeSpell/shown.WAV	RhymeSpell/clown.WAV
386.82	4.443	4	1	0.75	RhymeSpell/paint.WAV	RhymeSpell/sigh.WAV
391.263	4.443	1	1	0.878	RhymeSpell/stone.WAV	RhymeSpell/zone.WAV
395.706	4.442	0	1	1.046	Tones/nullsilence.WAV	Tones/nullsilence.WAV
400.148	4.443	6	1	0.815	Tones/375750475.WAV	Tones/375750475.WAV
404.591	4.443	0	1	0.98	Tones/nullsilence.WAV	Tones/nullsilence.WAV
409.034	4.443	0	1	1.111	Tones/nullsilence.WAV	Tones/nullsilence.WAV
413.477	4.443	2	1	0.964	RhymeSpell/spear.WAV	RhymeSpell/sphere.WAV
417.92	4.443	0	1	1.036	Tones/nullsilence.WAV	Tones/nullsilence.WAV
422.363	4.442	6	1	0.832	Tones/375800525.WAV	Tones/375800525.WAV
426.805	4.443	2	1	0.853	RhymeSpell/pro.WAV	RhymeSpell/mow.WAV
431.248	4.443	0	1	1.088	Tones/nullsilence.WAV	Tones/nullsilence.WAV
435.691	4.443	4	1	1.08	RhymeSpell/home.WAV	RhymeSpell/form.WAV
440.134	4.443	3	1	0.834	RhymeSpell/smooth.WAV	RhymeSpell/booth.WAV
444.577	4.443	0	1	1.061	Tones/nullsilence.WAV	Tones/nullsilence.WAV
449.02	4.443	1	1	0.815	RhymeSpell/grief.WAV	RhymeSpell/thief.WAV
453.463	4.442	2	1	0.899	RhymeSpell/top.WAV	RhymeSpell/swap.WAV
457.905	4.443	5	1	0.61	Tones/300.WAV	Tones/375.WAV
462.348	4.443	0	1	1.005	Tones/nullsilence.WAV	Tones/nullsilence.WAV
466.791	4.443	5	1	0.739	Tones/575.WAV	Tones/650.WAV
471.234	4.443	0	1	1.186	Tones/nullsilence.WAV	Tones/nullsilence.WAV
475.677	4.439	4	1	0.787	RhymeSpell/dream.WAV	RhymeSpell/blame.WAV
