onset	duration	trial_type	accuracy	response_time	stim1_file	stim2_file
0.0	4.443	3	0	1.236	RhymeSpell/took.WAV	RhymeSpell/spook.WAV
4.443	4.443	2	1	1.508	RhymeSpell/quo.WAV	RhymeSpell/glow.WAV
8.886	4.443	5	1	0.819	Tones/675.WAV	Tones/600.WAV
13.329	4.443	0	1	0.994	Tones/nullsilence.WAV	Tones/nullsilence.WAV
17.772	4.443	3	0	1.536	RhymeSpell/seat.WAV	RhymeSpell/threat.WAV
22.215	4.443	0	1	0.974	Tones/nullsilence.WAV	Tones/nullsilence.WAV
26.658	4.442	5	1	0.785	Tones/600.WAV	Tones/600.WAV
31.1	4.443	5	1	0.877	Tones/325.WAV	Tones/325.WAV
35.543	4.443	1	1	0.905	RhymeSpell/car.WAV	RhymeSpell/star.WAV
39.986	4.443	0	1	1.067	Tones/nullsilence.WAV	Tones/nullsilence.WAV
44.429	4.443	3	0	1.845	RhymeSpell/flash.WAV	RhymeSpell/wash.WAV
48.872	4.443	6	1	0.738	Tones/425600750.WAV	Tones/425600750.WAV
53.315	4.442	0	1	1.093	Tones/nullsilence.WAV	Tones/nullsilence.WAV
57.757	4.443	0	1	1.122	Tones/nullsilence.WAV	Tones/nullsilence.WAV
62.2	4.443	4	1	1.594	RhymeSpell/name.WAV	RhymeSpell/knee.WAV
66.643	4.443	4	1	1.201	RhymeSpell/cap.WAV	RhymeSpell/north.WAV
71.086	4.443	0	1	1.175	Tones/nullsilence.WAV	Tones/nullsilence.WAV
75.529	4.443	6	0	0.888	Tones/550800525.WAV	Tones/550800600.WAV
79.972	4.442	6	0	0.562	Tones/350825400.WAV	Tones/425825400.WAV
84.414	4.443	0	1	2.456	Tones/nullsilence.WAV	Tones/nullsilence.WAV
88.857	4.443	1	1	1.207	RhymeSpell/page.WAV	RhymeSpell/stage.WAV
93.3	4.443	2	0	1.606	RhymeSpell/woe.WAV	RhymeSpell/show.WAV
97.743	4.443	0	1	2.213	Tones/nullsilence.WAV	Tones/nullsilence.WAV
102.186	4.443	4	1	1.019	RhymeSpell/scheme.WAV	RhymeSpell/saint.WAV
106.629	4.443	2	0	0.9	RhymeSpell/foe.WAV	RhymeSpell/stow.WAV
111.072	4.442	0	1	1.109	Tones/nullsilence.WAV	Tones/nullsilence.WAV
115.514	4.443	6	1	0.99	Tones/650475300.WAV	Tones/650475300.WAV
119.957	4.443	6	0	0.889	Tones/425675500.WAV	Tones/425750500.WAV
124.4	4.443	0	1	1.036	Tones/nullsilence.WAV	Tones/nullsilence.WAV
128.843	4.443	5	1	0.904	Tones/350.WAV	Tones/425.WAV
133.286	4.443	0	1	1.066	Tones/nullsilence.WAV	Tones/nullsilence.WAV
137.729	4.442	2	1	1.219	RhymeSpell/weird.WAV	RhymeSpell/beard.WAV
142.171	4.443	1	1	1.194	RhymeSpell/cage.WAV	RhymeSpell/rage.WAV
146.614	4.443	3	0	1.175	RhymeSpell/grand.WAV	RhymeSpell/wand.WAV
151.057	4.443	6	1	1.086	Tones/875575325.WAV	Tones/875575400.WAV
155.5	4.443	3	1	1.39	RhymeSpell/breast.WAV	RhymeSpell/feast.WAV
159.943	4.443	0	1	1.2	Tones/nullsilence.WAV	Tones/nullsilence.WAV
164.386	4.443	5	1	0.759	Tones/850.WAV	Tones/850.WAV
168.829	4.442	0	1	1.172	Tones/nullsilence.WAV	Tones/nullsilence.WAV
173.271	4.443	6	0	0.894	Tones/725400775.WAV	Tones/650400775.WAV
177.714	4.443	2	1	1.287	RhymeSpell/plea.WAV	RhymeSpell/key.WAV
182.157	4.443	4	1	0.817	RhymeSpell/boom.WAV	RhymeSpell/past.WAV
186.6	4.443	5	1	0.9	Tones/775.WAV	Tones/700.WAV
191.043	4.443	0	1	1.122	Tones/nullsilence.WAV	Tones/nullsilence.WAV
195.486	4.442	0	1	1.137	Tones/nullsilence.WAV	Tones/nullsilence.WAV
199.928	4.443	4	1	0.915	RhymeSpell/brass.WAV	RhymeSpell/gut.WAV
204.371	4.443	0	1	1.044	Tones/nullsilence.WAV	Tones/nullsilence.WAV
208.814	4.443	4	1	0.882	RhymeSpell/nail.WAV	RhymeSpell/weep.WAV
213.257	4.443	0	1	1.206	Tones/nullsilence.WAV	Tones/nullsilence.WAV
217.7	4.443	3	1	0.933	RhymeSpell/christ.WAV	RhymeSpell/twist.WAV
222.143	4.442	5	1	0.742	Tones/625.WAV	Tones/625.WAV
226.585	4.443	2	0	1.155	RhymeSpell/froze.WAV	RhymeSpell/nose.WAV
231.028	4.443	0	1	0.956	Tones/nullsilence.WAV	Tones/nullsilence.WAV
235.471	4.443	1	1	1.349	RhymeSpell/cork.WAV	RhymeSpell/stork.WAV
239.914	4.443	0	1	1.354	Tones/nullsilence.WAV	Tones/nullsilence.WAV
244.357	4.443	4	0	1.146	RhymeSpell/food.WAV	RhymeSpell/brought.WAV
248.8	4.443	3	1	1.056	RhymeSpell/gone.WAV	RhymeSpell/phone.WAV
253.243	4.442	0	1	0.837	Tones/nullsilence.WAV	Tones/nullsilence.WAV
257.685	4.443	0	1	1.203	Tones/nullsilence.WAV	Tones/nullsilence.WAV
262.128	4.443	4	1	0.981	RhymeSpell/jet.WAV	RhymeSpell/pace.WAV
266.571	4.443	0	1	1.389	Tones/nullsilence.WAV	Tones/nullsilence.WAV
271.014	4.443	1	0	1.556	RhymeSpell/grow.WAV	RhymeSpell/snow.WAV
275.457	4.443	1	1	0.978	RhymeSpell/fluff.WAV	RhymeSpell/puff.WAV
279.9	4.442	6	0	1.068	Tones/325500725.WAV	Tones/325500725.WAV
284.342	4.443	6	1	1.484	Tones/625450850.WAV	Tones/625450775.WAV
288.785	4.443	0	1	1.009	Tones/nullsilence.WAV	Tones/nullsilence.WAV
293.228	4.443	4	0	2.236	RhymeSpell/calm.WAV	RhymeSpell/fame.WAV
297.671	4.443	0	0	1.562	Tones/nullsilence.WAV	Tones/nullsilence.WAV
302.114	4.443	2	0	1.592	RhymeSpell/grade.WAV	RhymeSpell/laid.WAV
306.557	4.442	0	1	1.024	Tones/nullsilence.WAV	Tones/nullsilence.WAV
310.999	4.443	1	1	1.456	RhymeSpell/care.WAV	RhymeSpell/rare.WAV
315.442	4.443	4	1	1.063	RhymeSpell/fall.WAV	RhymeSpell/tint.WAV
319.885	4.443	1	1	1.421	RhymeSpell/note.WAV	RhymeSpell/wrote.WAV
324.328	4.443	5	1	0.995	Tones/800.WAV	Tones/800.WAV
328.771	4.443	5	1	0.94	Tones/375.WAV	Tones/450.WAV
333.214	4.443	0	1	0.926	Tones/nullsilence.WAV	Tones/nullsilence.WAV
337.657	4.442	4	1	1.178	RhymeSpell/splash.WAV	RhymeSpell/braid.WAV
342.099	4.443	0	1	1.264	Tones/nullsilence.WAV	Tones/nullsilence.WAV
346.542	4.443	1	1	1.099	RhymeSpell/spruce.WAV	RhymeSpell/truce.WAV
350.985	4.443	1	1	1.044	RhymeSpell/shell.WAV	RhymeSpell/tell.WAV
355.428	4.443	1	1	1.005	RhymeSpell/fist.WAV	RhymeSpell/gist.WAV
359.871	4.443	6	1	0.877	Tones/875675300.WAV	Tones/875675300.WAV
364.314	4.442	3	1	1.105	RhymeSpell/phase.WAV	RhymeSpell/case.WAV
368.756	4.443	2	0	1.327	RhymeSpell/run.WAV	RhymeSpell/ton.WAV
373.199	4.443	0	0	1.248	Tones/nullsilence.WAV	Tones/nullsilence.WAV
377.642	4.443	5	1	0.937	Tones/650.WAV	Tones/575.WAV
382.085	4.443	3	1	1.33	RhymeSpell/scarce.WAV	RhymeSpell/farce.WAV
386.528	4.443	4	0	1.349	RhymeSpell/half.WAV	RhymeSpell/bake.WAV
390.971	4.442	1	1	1.072	RhymeSpell/cart.WAV	RhymeSpell/smart.WAV
395.413	4.443	0	1	1.9	Tones/nullsilence.WAV	Tones/nullsilence.WAV
399.856	4.443	6	1	0.907	Tones/375750475.WAV	Tones/375750475.WAV
404.299	4.443	0	1	1.087	Tones/nullsilence.WAV	Tones/nullsilence.WAV
408.742	4.443	0	1	1.289	Tones/nullsilence.WAV	Tones/nullsilence.WAV
413.185	4.443	2	0	0.942	RhymeSpell/hood.WAV	RhymeSpell/should.WAV
417.628	4.443	0	1	1.012	Tones/nullsilence.WAV	Tones/nullsilence.WAV
422.071	4.442	6	1	0.855	Tones/375800525.WAV	Tones/375800525.WAV
426.513	4.443	2	0	1.74	RhymeSpell/fruit.WAV	RhymeSpell/loot.WAV
430.956	4.443	0	1	1.178	Tones/nullsilence.WAV	Tones/nullsilence.WAV
435.399	4.443	4	0	1.136	RhymeSpell/palm.WAV	RhymeSpell/salt.WAV
439.842	4.443	3	1	0.949	RhymeSpell/shall.WAV	RhymeSpell/call.WAV
444.285	4.443	0	1	1.14	Tones/nullsilence.WAV	Tones/nullsilence.WAV
448.728	4.442	1	1	1.083	RhymeSpell/clear.WAV	RhymeSpell/fear.WAV
453.17	4.443	2	0	1.184	RhymeSpell/view.WAV	RhymeSpell/few.WAV
457.613	4.443	5	0	0.851	Tones/300.WAV	Tones/375.WAV
462.056	4.443	0	1	1.21	Tones/nullsilence.WAV	Tones/nullsilence.WAV
466.499	4.443	5	0	0.918	Tones/575.WAV	Tones/650.WAV
470.942	4.443	0	1	1.15	Tones/nullsilence.WAV	Tones/nullsilence.WAV
475.385	4.439	4	0	0.983	RhymeSpell/crease.WAV	RhymeSpell/shave.WAV
