onset	duration	trial_type	accuracy	response_time	stim1_file	stim2_file
0.0	4.443	3	1	1.134	Semantic/system.bmp	Semantic/head2.bmp
4.443	4.443	2	1	1.313	Semantic/speak.bmp	Semantic/talk2.bmp
8.886	4.442	3	1	1.623	Semantic/cobra.bmp	Semantic/slipper2.bmp
13.328	4.443	0	1	1.149	Semantic/null.bmp	Semantic/null.bmp
17.771	4.443	2	1	1.717	Semantic/distance.bmp	Semantic/mile1.bmp
22.214	4.443	4	1	1.152	Symbols/t.bmp	Symbols/g2.bmp
26.657	4.443	0	1	1.338	Semantic/null.bmp	Semantic/null.bmp
31.1	4.443	4	1	1.317	Symbols/w.bmp	Symbols/w2.bmp
35.543	4.442	4	1	1.174	Symbols/u.bmp	Symbols/u2.bmp
39.985	4.443	4	1	1.21	Symbols/s.bmp	Symbols/j2.bmp
44.428	4.443	0	1	1.291	Semantic/null.bmp	Semantic/null.bmp
48.871	4.443	4	1	1.265	Symbols/l.bmp	Symbols/l2.bmp
53.314	4.443	0	1	1.343	Semantic/null.bmp	Semantic/null.bmp
57.757	4.443	3	1	1.366	Semantic/chill.bmp	Semantic/hawk2.bmp
62.2	4.443	0	1	1.463	Semantic/null.bmp	Semantic/null.bmp
66.643	4.442	1	1	1.517	Semantic/thin.bmp	Semantic/fat2.bmp
71.085	4.443	1	1	1.606	Semantic/sketch.bmp	Semantic/draw2.bmp
75.528	4.443	0	1	1.276	Semantic/null.bmp	Semantic/null.bmp
79.971	4.443	1	1	2.173	Semantic/dog.bmp	Semantic/cat1.bmp
84.414	4.443	0	1	1.234	Semantic/null.bmp	Semantic/null.bmp
88.857	4.443	2	0	2.327	Semantic/guide.bmp	Semantic/tour2.bmp
93.3	4.442	0	1	1.665	Semantic/null.bmp	Semantic/null.bmp
97.742	4.443	3	1	1.966	Semantic/adult.bmp	Semantic/pond1.bmp
102.185	4.443	0	1	1.138	Semantic/null.bmp	Semantic/null.bmp
106.628	4.443	2	0	2.584	Semantic/reef.bmp	Semantic/coral1.bmp
111.071	4.443	5	1	1.59	Symbols/mfc.bmp	Symbols/mfc1.bmp
115.514	4.443	0	1	1.388	Semantic/null.bmp	Semantic/null.bmp
119.957	4.442	1	1	1.2	Semantic/little.bmp	Semantic/big1.bmp
124.399	4.443	2	0	1.806	Semantic/motion.bmp	Semantic/movement2.bmp
128.842	4.443	3	1	2.094	Semantic/hoof.bmp	Semantic/stitch2.bmp
133.285	4.443	4	1	1.155	Symbols/c.bmp	Symbols/v1.bmp
137.728	4.443	2	1	1.184	Semantic/salad.bmp	Semantic/lettuce1.bmp
142.171	4.443	0	1	1.475	Semantic/null.bmp	Semantic/null.bmp
146.614	4.442	2	1	1.329	Semantic/lip.bmp	Semantic/kiss1.bmp
151.056	4.443	2	1	1.22	Semantic/shout.bmp	Semantic/yell1.bmp
155.499	4.443	0	1	1.413	Semantic/null.bmp	Semantic/null.bmp
159.942	4.443	1	1	1.356	Semantic/dime.bmp	Semantic/nickel1.bmp
164.385	4.443	4	1	1.226	Symbols/n.bmp	Symbols/n1.bmp
168.828	4.443	3	1	1.807	Semantic/cream.bmp	Semantic/grip2.bmp
173.271	4.442	3	1	1.796	Semantic/trust.bmp	Semantic/dozen1.bmp
177.713	4.443	3	1	1.519	Semantic/sailing.bmp	Semantic/nest2.bmp
182.156	4.443	0	1	1.408	Semantic/null.bmp	Semantic/null.bmp
186.599	4.443	3	1	1.814	Semantic/pigeon.bmp	Semantic/gamble2.bmp
191.042	4.443	2	1	1.588	Semantic/maple.bmp	Semantic/syrup2.bmp
195.485	4.443	0	1	1.569	Semantic/null.bmp	Semantic/null.bmp
199.928	4.443	4	1	1.442	Symbols/i.bmp	Symbols/i2.bmp
204.371	4.442	2	1	1.76	Semantic/hop.bmp	Semantic/skip1.bmp
208.813	4.443	4	1	1.348	Symbols/r.bmp	Symbols/z2.bmp
213.256	4.443	0	1	1.207	Semantic/null.bmp	Semantic/null.bmp
217.699	4.443	5	1	1.313	Symbols/crs.bmp	Symbols/cre2.bmp
222.142	4.443	0	1	1.449	Semantic/null.bmp	Semantic/null.bmp
226.585	4.443	4	1	1.277	Symbols/p.bmp	Symbols/s1.bmp
231.028	4.442	0	1	1.189	Semantic/null.bmp	Semantic/null.bmp
235.47	4.443	3	1	1.63	Semantic/blanket.bmp	Semantic/split2.bmp
239.913	4.443	0	1	1.431	Semantic/null.bmp	Semantic/null.bmp
244.356	4.443	1	1	1.823	Semantic/yours.bmp	Semantic/mine1.bmp
248.799	4.443	0	1	1.652	Semantic/null.bmp	Semantic/null.bmp
253.242	4.443	3	1	1.245	Semantic/corn.bmp	Semantic/blame1.bmp
257.685	4.442	3	1	1.702	Semantic/hunter.bmp	Semantic/lemon2.bmp
262.127	4.443	0	1	1.368	Semantic/null.bmp	Semantic/null.bmp
266.57	4.443	5	1	1.289	Symbols/pcf.bmp	Symbols/kcf2.bmp
271.013	4.443	5	1	1.843	Symbols/van.bmp	Symbols/van2.bmp
275.456	4.443	1	1	1.444	Semantic/prison.bmp	Semantic/jail2.bmp
279.899	4.443	2	1	1.407	Semantic/hoot.bmp	Semantic/owl2.bmp
284.342	4.442	5	1	1.216	Symbols/jzd.bmp	Symbols/jbd2.bmp
288.784	4.443	0	1	1.401	Semantic/null.bmp	Semantic/null.bmp
293.227	4.443	4	1	1.403	Symbols/v.bmp	Symbols/h1.bmp
297.67	4.443	0	1	1.418	Semantic/null.bmp	Semantic/null.bmp
302.113	4.443	2	1	1.556	Semantic/water.bmp	Semantic/drink2.bmp
306.556	4.443	0	1	1.798	Semantic/null.bmp	Semantic/null.bmp
310.999	4.442	1	1	1.352	Semantic/table.bmp	Semantic/chair1.bmp
315.441	4.443	0	1	1.631	Semantic/null.bmp	Semantic/null.bmp
319.884	4.443	1	1	1.978	Semantic/vine.bmp	Semantic/grape2.bmp
324.327	4.443	0	1	1.307	Semantic/null.bmp	Semantic/null.bmp
328.77	4.443	2	1	1.908	Semantic/throw.bmp	Semantic/catch1.bmp
333.213	4.443	4	1	1.348	Symbols/h.bmp	Symbols/c2.bmp
337.656	4.443	0	1	1.303	Semantic/null.bmp	Semantic/null.bmp
342.099	4.442	3	1	2.701	Semantic/able.bmp	Semantic/party2.bmp
346.541	4.443	5	1	1.465	Symbols/ksg.bmp	Symbols/ksj2.bmp
350.984	4.443	5	1	1.106	Symbols/uab.bmp	Symbols/iab1.bmp
355.427	4.443	1	1	1.449	Semantic/lend.bmp	Semantic/borrow1.bmp
359.87	4.443	0	1	3.198	Semantic/null.bmp	Semantic/null.bmp
364.313	4.443	1	1	1.2	Semantic/silver.bmp	Semantic/gold2.bmp
368.756	4.442	0	1	1.506	Semantic/null.bmp	Semantic/null.bmp
373.198	4.443	4	1	1.246	Symbols/m.bmp	Symbols/m2.bmp
377.641	4.443	5	0	1.602	Symbols/upw.bmp	Symbols/upw1.bmp
382.084	4.443	5	1	1.232	Symbols/myh.bmp	Symbols/myl1.bmp
386.527	4.443	0	1	2.179	Semantic/null.bmp	Semantic/null.bmp
390.97	4.443	5	0	1.219	Symbols/hio.bmp	Symbols/hio2.bmp
395.413	4.442	5	1	1.268	Symbols/mey.bmp	Symbols/mey2.bmp
399.855	4.439	0	1	1.224	Semantic/null.bmp	Semantic/null.bmp
