onset	duration	trial_type	accuracy	response_time	stim1_file	stim2_file
0.0	4.443	3	1	1.298	Semantic/system.bmp	Semantic/head2.bmp
4.443	4.442	2	1	1.282	Semantic/speak.bmp	Semantic/talk2.bmp
8.885	4.443	3	1	1.195	Semantic/cobra.bmp	Semantic/slipper2.bmp
13.328	4.443	0	1	1.056	Semantic/null.bmp	Semantic/null.bmp
17.771	4.443	2	0	1.292	Semantic/distance.bmp	Semantic/mile1.bmp
22.214	4.443	4	1	1.039	Symbols/t.bmp	Symbols/g2.bmp
26.657	4.443	0	1	1.023	Semantic/null.bmp	Semantic/null.bmp
31.1	4.442	4	1	0.935	Symbols/w.bmp	Symbols/w2.bmp
35.542	4.443	4	1	1.079	Symbols/u.bmp	Symbols/u2.bmp
39.985	4.443	4	1	0.934	Symbols/s.bmp	Symbols/j2.bmp
44.428	4.443	0	1	0.864	Semantic/null.bmp	Semantic/null.bmp
48.871	4.443	4	1	1.105	Symbols/l.bmp	Symbols/l2.bmp
53.314	4.443	0	1	1.075	Semantic/null.bmp	Semantic/null.bmp
57.757	4.443	3	1	1.51	Semantic/chill.bmp	Semantic/hawk2.bmp
62.2	4.442	0	1	1.064	Semantic/null.bmp	Semantic/null.bmp
66.642	4.443	1	0	1.134	Semantic/thin.bmp	Semantic/fat2.bmp
71.085	4.443	1	1	1.848	Semantic/sketch.bmp	Semantic/draw2.bmp
75.528	4.443	0	1	1.044	Semantic/null.bmp	Semantic/null.bmp
79.971	4.443	1	1	1.91	Semantic/dog.bmp	Semantic/cat1.bmp
84.414	4.443	0	1	0.844	Semantic/null.bmp	Semantic/null.bmp
88.857	4.442	2	1	1.636	Semantic/guide.bmp	Semantic/tour2.bmp
93.299	4.443	0	1	0.897	Semantic/null.bmp	Semantic/null.bmp
97.742	4.443	3	1	1.104	Semantic/adult.bmp	Semantic/pond1.bmp
102.185	4.443	0	1	0.898	Semantic/null.bmp	Semantic/null.bmp
106.628	4.443	2	0	1.148	Semantic/reef.bmp	Semantic/coral1.bmp
111.071	4.443	5	1	0.95	Symbols/mfc.bmp	Symbols/mfc1.bmp
115.514	4.442	0	1	1.04	Semantic/null.bmp	Semantic/null.bmp
119.956	4.443	1	1	1.984	Semantic/little.bmp	Semantic/big1.bmp
124.399	4.443	2	0	1.628	Semantic/motion.bmp	Semantic/movement2.bmp
128.842	4.443	3	1	1.747	Semantic/hoof.bmp	Semantic/stitch2.bmp
133.285	4.443	4	1	0.898	Symbols/c.bmp	Symbols/v1.bmp
137.728	4.443	2	1	1.068	Semantic/salad.bmp	Semantic/lettuce1.bmp
142.171	4.442	0	1	1.169	Semantic/null.bmp	Semantic/null.bmp
146.613	4.443	2	0	1.636	Semantic/lip.bmp	Semantic/kiss1.bmp
151.056	4.443	2	0	1.286	Semantic/shout.bmp	Semantic/yell1.bmp
155.499	4.443	0	1	0.9	Semantic/null.bmp	Semantic/null.bmp
159.942	4.443	1	0	1.021	Semantic/dime.bmp	Semantic/nickel1.bmp
164.385	4.443	4	1	1.039	Symbols/n.bmp	Symbols/n1.bmp
168.828	4.443	3	1	1.33	Semantic/cream.bmp	Semantic/grip2.bmp
173.271	4.442	3	0	1.5	Semantic/trust.bmp	Semantic/dozen1.bmp
177.713	4.443	3	1	1.184	Semantic/sailing.bmp	Semantic/nest2.bmp
182.156	4.443	0	1	1.01	Semantic/null.bmp	Semantic/null.bmp
186.599	4.443	3	1	1.177	Semantic/pigeon.bmp	Semantic/gamble2.bmp
191.042	4.443	2	1	1.318	Semantic/maple.bmp	Semantic/syrup2.bmp
195.485	4.443	0	1	1.053	Semantic/null.bmp	Semantic/null.bmp
199.928	4.589	4	1	0.981	Symbols/i.bmp	Symbols/i2.bmp
204.517	4.443	2	1	1.824	Semantic/hop.bmp	Semantic/skip1.bmp
208.96	4.443	4	1	0.974	Symbols/r.bmp	Symbols/z2.bmp
213.403	4.442	0	1	1.039	Semantic/null.bmp	Semantic/null.bmp
217.845	4.443	5	1	1.01	Symbols/crs.bmp	Symbols/cre2.bmp
222.288	4.443	0	1	0.839	Semantic/null.bmp	Semantic/null.bmp
226.731	4.443	4	1	1.037	Symbols/p.bmp	Symbols/s1.bmp
231.174	4.443	0	1	1.089	Semantic/null.bmp	Semantic/null.bmp
235.617	4.443	3	1	0.961	Semantic/blanket.bmp	Semantic/split2.bmp
240.06	4.442	0	1	1.198	Semantic/null.bmp	Semantic/null.bmp
244.502	4.443	1	0	1.031	Semantic/yours.bmp	Semantic/mine1.bmp
248.945	4.443	0	1	0.957	Semantic/null.bmp	Semantic/null.bmp
253.388	4.443	3	0	1.336	Semantic/corn.bmp	Semantic/blame1.bmp
257.831	4.443	3	1	1.331	Semantic/hunter.bmp	Semantic/lemon2.bmp
262.274	4.443	0	1	1.17	Semantic/null.bmp	Semantic/null.bmp
266.717	4.442	5	1	1.033	Symbols/pcf.bmp	Symbols/kcf2.bmp
271.159	4.443	5	1	1.46	Symbols/van.bmp	Symbols/van2.bmp
275.602	4.443	1	1	1.432	Semantic/prison.bmp	Semantic/jail2.bmp
280.045	4.443	2	1	1.827	Semantic/hoot.bmp	Semantic/owl2.bmp
284.488	4.443	5	1	1.185	Symbols/jzd.bmp	Symbols/jbd2.bmp
288.931	4.443	0	1	1.021	Semantic/null.bmp	Semantic/null.bmp
293.374	4.442	4	1	1.036	Symbols/v.bmp	Symbols/h1.bmp
297.816	4.443	0	1	1.589	Semantic/null.bmp	Semantic/null.bmp
302.259	4.443	2	1	1.466	Semantic/water.bmp	Semantic/drink2.bmp
306.702	4.443	0	1	0.983	Semantic/null.bmp	Semantic/null.bmp
311.145	4.443	1	0	1.244	Semantic/table.bmp	Semantic/chair1.bmp
315.588	4.443	0	1	0.936	Semantic/null.bmp	Semantic/null.bmp
320.031	4.443	1	1	1.942	Semantic/vine.bmp	Semantic/grape2.bmp
324.474	4.442	0	1	1.204	Semantic/null.bmp	Semantic/null.bmp
328.916	4.443	2	0	1.502	Semantic/throw.bmp	Semantic/catch1.bmp
333.359	4.443	4	1	1.03	Symbols/h.bmp	Symbols/c2.bmp
337.802	4.443	0	1	0.886	Semantic/null.bmp	Semantic/null.bmp
342.245	4.443	3	0	1.577	Semantic/able.bmp	Semantic/party2.bmp
346.688	4.443	5	1	1.137	Symbols/ksg.bmp	Symbols/ksj2.bmp
351.131	4.442	5	0	1.121	Symbols/uab.bmp	Symbols/iab1.bmp
355.573	4.443	1	1	1.128	Semantic/lend.bmp	Semantic/borrow1.bmp
360.016	4.443	0	1	1.102	Semantic/null.bmp	Semantic/null.bmp
364.459	4.443	1	0	1.364	Semantic/silver.bmp	Semantic/gold2.bmp
368.902	4.443	0	1	1.143	Semantic/null.bmp	Semantic/null.bmp
373.345	4.443	4	1	1.134	Symbols/m.bmp	Symbols/m2.bmp
377.788	4.442	5	0	1.24	Symbols/upw.bmp	Symbols/upw1.bmp
382.23	4.443	5	1	1.239	Symbols/myh.bmp	Symbols/myl1.bmp
386.673	4.443	0	1	1.271	Semantic/null.bmp	Semantic/null.bmp
391.116	4.443	5	0	1.239	Symbols/hio.bmp	Symbols/hio2.bmp
395.559	4.443	5	1	1.491	Symbols/mey.bmp	Symbols/mey2.bmp
400.002	4.439	0	1	1.272	Semantic/null.bmp	Semantic/null.bmp
