onset	duration	trial_type	accuracy	response_time	stim1_file	stim2_file
0.0	4.443	2	1	1.03	RhymeSpell/crawl.WAV	RhymeSpell/ball.WAV
4.443	4.443	2	1	1.133	RhymeSpell/moan.WAV	RhymeSpell/bone.WAV
8.886	4.443	0	1	0.865	Tones/nullsilence.WAV	Tones/nullsilence.WAV
13.329	4.443	3	0	1.22	RhymeSpell/harm.WAV	RhymeSpell/warm.WAV
17.772	4.443	0	1	0.818	Tones/nullsilence.WAV	Tones/nullsilence.WAV
22.215	4.442	3	1	0.96	RhymeSpell/dull.WAV	RhymeSpell/pull.WAV
26.657	4.443	5	1	0.948	Tones/700.WAV	Tones/700.WAV
31.1	4.443	1	1	0.894	RhymeSpell/dime.WAV	RhymeSpell/lime.WAV
35.543	4.443	0	1	1.004	Tones/nullsilence.WAV	Tones/nullsilence.WAV
39.986	4.443	1	0	1.902	RhymeSpell/thread.WAV	RhymeSpell/dread.WAV
44.429	4.443	4	0	1.829	RhymeSpell/dash.WAV	RhymeSpell/brow.WAV
48.872	4.443	2	1	0.903	RhymeSpell/though.WAV	RhymeSpell/blow.WAV
53.315	4.442	2	1	1.064	RhymeSpell/greet.WAV	RhymeSpell/neat.WAV
57.757	4.443	0	1	1.026	Tones/nullsilence.WAV	Tones/nullsilence.WAV
62.2	4.443	1	1	1.064	RhymeSpell/mad.WAV	RhymeSpell/pad.WAV
66.643	4.443	0	1	1.091	Tones/nullsilence.WAV	Tones/nullsilence.WAV
71.086	4.443	5	1	1.067	Tones/450.WAV	Tones/525.WAV
75.529	4.443	0	1	1.078	Tones/nullsilence.WAV	Tones/nullsilence.WAV
79.972	4.442	3	0	1.804	RhymeSpell/tough.WAV	RhymeSpell/cough.WAV
84.414	4.443	6	1	0.785	Tones/350475625.WAV	Tones/350475625.WAV
88.857	4.443	1	1	1.174	RhymeSpell/drum.WAV	RhymeSpell/gum.WAV
93.3	4.443	0	1	1.116	Tones/nullsilence.WAV	Tones/nullsilence.WAV
97.743	4.443	5	1	1.188	Tones/825.WAV	Tones/750.WAV
102.186	4.443	5	1	0.52	Tones/875.WAV	Tones/875.WAV
106.629	4.442	2	0	1.111	RhymeSpell/comb.WAV	RhymeSpell/chrome.WAV
111.071	4.443	0	1	1.029	Tones/nullsilence.WAV	Tones/nullsilence.WAV
115.514	4.443	3	0	1.786	RhymeSpell/couch.WAV	RhymeSpell/touch.WAV
119.957	4.443	0	1	0.93	Tones/nullsilence.WAV	Tones/nullsilence.WAV
124.4	4.443	6	0	1.012	Tones/325575725.WAV	Tones/325500725.WAV
128.843	4.443	0	1	0.874	Tones/nullsilence.WAV	Tones/nullsilence.WAV
133.286	4.442	3	1	0.992	RhymeSpell/gull.WAV	RhymeSpell/bull.WAV
137.728	4.443	4	1	0.779	RhymeSpell/goes.WAV	RhymeSpell/lap.WAV
142.171	4.443	5	1	0.908	Tones/525.WAV	Tones/525.WAV
146.614	4.443	1	1	0.849	RhymeSpell/pay.WAV	RhymeSpell/play.WAV
151.057	4.443	0	1	0.978	Tones/nullsilence.WAV	Tones/nullsilence.WAV
155.5	4.443	4	0	1.176	RhymeSpell/staff.WAV	RhymeSpell/gain.WAV
159.943	4.443	5	1	1.004	Tones/425.WAV	Tones/425.WAV
164.386	4.442	0	1	1.309	Tones/nullsilence.WAV	Tones/nullsilence.WAV
168.828	4.443	4	1	1.489	RhymeSpell/scale.WAV	RhymeSpell/fly.WAV
173.271	4.443	0	1	1.062	Tones/nullsilence.WAV	Tones/nullsilence.WAV
177.714	4.443	6	0	0.896	Tones/425700850.WAV	Tones/425700775.WAV
182.157	4.443	0	1	0.845	Tones/nullsilence.WAV	Tones/nullsilence.WAV
186.6	4.443	1	1	1.901	RhymeSpell/hint.WAV	RhymeSpell/print.WAV
191.043	4.442	0	1	1.134	Tones/nullsilence.WAV	Tones/nullsilence.WAV
195.485	4.443	6	0	1.214	Tones/525800450.WAV	Tones/525800450.WAV
199.928	4.443	0	1	0.975	Tones/nullsilence.WAV	Tones/nullsilence.WAV
204.371	4.443	5	1	0.911	Tones/400.WAV	Tones/400.WAV
208.814	4.443	0	1	1.071	Tones/nullsilence.WAV	Tones/nullsilence.WAV
213.257	4.443	3	1	1.178	RhymeSpell/foot.WAV	RhymeSpell/hoot.WAV
217.7	4.442	0	1	0.839	Tones/nullsilence.WAV	Tones/nullsilence.WAV
222.142	4.443	3	1	1.52	RhymeSpell/glove.WAV	RhymeSpell/drove.WAV
226.585	4.443	0	1	0.915	Tones/nullsilence.WAV	Tones/nullsilence.WAV
231.028	4.443	2	1	1.019	RhymeSpell/trade.WAV	RhymeSpell/paid.WAV
235.471	4.443	3	1	1.24	RhymeSpell/moth.WAV	RhymeSpell/both.WAV
239.914	4.443	4	1	1.541	RhymeSpell/start.WAV	RhymeSpell/pure.WAV
244.357	4.442	6	0	1.1	Tones/600550400.WAV	Tones/675550400.WAV
248.799	4.443	0	1	0.901	Tones/nullsilence.WAV	Tones/nullsilence.WAV
253.242	4.443	5	1	0.761	Tones/500.WAV	Tones/500.WAV
257.685	4.443	0	1	1.01	Tones/nullsilence.WAV	Tones/nullsilence.WAV
262.128	4.443	6	0	1.038	Tones/450650850.WAV	Tones/375650850.WAV
266.571	4.443	0	1	0.873	Tones/nullsilence.WAV	Tones/nullsilence.WAV
271.014	4.442	1	1	1.28	RhymeSpell/wall.WAV	RhymeSpell/tall.WAV
275.456	4.443	0	1	0.905	Tones/nullsilence.WAV	Tones/nullsilence.WAV
279.899	4.443	2	1	2.022	RhymeSpell/glad.WAV	RhymeSpell/plaid.WAV
284.342	4.443	0	1	0.936	Tones/nullsilence.WAV	Tones/nullsilence.WAV
288.785	4.443	5	1	1.155	Tones/725.WAV	Tones/650.WAV
293.228	4.443	0	1	0.956	Tones/nullsilence.WAV	Tones/nullsilence.WAV
297.671	4.443	4	1	0.954	RhymeSpell/strut.WAV	RhymeSpell/glint.WAV
302.114	4.442	2	1	0.715	RhymeSpell/sheet.WAV	RhymeSpell/heat.WAV
306.556	4.443	6	1	0.749	Tones/750300700.WAV	Tones/750300700.WAV
310.999	4.443	2	1	0.871	RhymeSpell/whom.WAV	RhymeSpell/womb.WAV
315.442	4.443	4	1	1.036	RhymeSpell/spare.WAV	RhymeSpell/cow.WAV
319.885	4.443	0	1	0.862	Tones/nullsilence.WAV	Tones/nullsilence.WAV
324.328	4.443	3	1	1.342	RhymeSpell/fat.WAV	RhymeSpell/swat.WAV
328.771	4.442	4	1	1.529	RhymeSpell/team.WAV	RhymeSpell/brief.WAV
333.213	4.443	0	1	0.784	Tones/nullsilence.WAV	Tones/nullsilence.WAV
337.656	4.443	5	1	0.953	Tones/550.WAV	Tones/550.WAV
342.099	4.443	0	1	1.102	Tones/nullsilence.WAV	Tones/nullsilence.WAV
346.542	4.443	3	1	1.352	RhymeSpell/bad.WAV	RhymeSpell/wad.WAV
350.985	4.443	1	1	0.83	RhymeSpell/glare.WAV	RhymeSpell/share.WAV
355.428	4.442	0	1	0.777	Tones/nullsilence.WAV	Tones/nullsilence.WAV
359.87	4.443	1	0	1.191	RhymeSpell/cold.WAV	RhymeSpell/told.WAV
364.313	4.443	6	1	0.892	Tones/775625825.WAV	Tones/775625825.WAV
368.756	4.443	1	1	0.993	RhymeSpell/dawn.WAV	RhymeSpell/lawn.WAV
373.199	4.443	1	1	0.921	RhymeSpell/broke.WAV	RhymeSpell/joke.WAV
377.642	4.443	4	1	0.738	RhymeSpell/craft.WAV	RhymeSpell/young.WAV
382.085	4.442	0	1	1.085	Tones/nullsilence.WAV	Tones/nullsilence.WAV
386.527	4.443	3	1	0.896	RhymeSpell/hull.WAV	RhymeSpell/full.WAV
390.97	4.443	3	0	1.071	RhymeSpell/freight.WAV	RhymeSpell/height.WAV
395.413	4.443	5	1	1.075	Tones/750.WAV	Tones/675.WAV
399.856	4.443	2	1	0.897	RhymeSpell/stool.WAV	RhymeSpell/ghoul.WAV
404.299	4.443	2	0	1.288	RhymeSpell/hoe.WAV	RhymeSpell/throw.WAV
408.742	4.443	0	1	0.988	Tones/nullsilence.WAV	Tones/nullsilence.WAV
413.185	4.442	6	1	1.378	Tones/875675500.WAV	Tones/875675500.WAV
417.627	4.443	3	0	1.38	RhymeSpell/cost.WAV	RhymeSpell/ghost.WAV
422.07	4.443	0	1	0.747	Tones/nullsilence.WAV	Tones/nullsilence.WAV
426.513	4.443	6	1	0.876	Tones/650350575.WAV	Tones/650350575.WAV
430.956	4.443	2	1	1.226	RhymeSpell/gas.WAV	RhymeSpell/pass.WAV
435.399	4.443	3	0	1.346	RhymeSpell/blood.WAV	RhymeSpell/wood.WAV
439.842	4.442	0	1	0.76	Tones/nullsilence.WAV	Tones/nullsilence.WAV
444.284	4.443	4	1	1.23	RhymeSpell/vend.WAV	RhymeSpell/space.WAV
448.727	4.443	2	1	0.609	RhymeSpell/choose.WAV	RhymeSpell/lose.WAV
453.17	4.443	6	1	0.865	Tones/700550775.WAV	Tones/700475775.WAV
457.613	4.443	0	1	0.793	Tones/nullsilence.WAV	Tones/nullsilence.WAV
462.056	4.443	6	0	0.862	Tones/825600375.WAV	Tones/825675375.WAV
466.499	4.442	5	1	0.797	Tones/475.WAV	Tones/550.WAV
470.941	4.443	0	1	1.013	Tones/nullsilence.WAV	Tones/nullsilence.WAV
475.384	4.439	0	1	0.879	Tones/nullsilence.WAV	Tones/nullsilence.WAV
