onset	duration	trial_type	accuracy	response_time	stim1_file	stim2_file
0.0	4.443	3	1	1.108	RhymeSpell/took.WAV	RhymeSpell/spook.WAV
4.443	4.442	2	1	0.974	RhymeSpell/quo.WAV	RhymeSpell/glow.WAV
8.885	4.443	5	0	0.905	Tones/675.WAV	Tones/600.WAV
13.328	4.443	0	1	1.087	Tones/nullsilence.WAV	Tones/nullsilence.WAV
17.771	4.443	3	0	1.184	RhymeSpell/seat.WAV	RhymeSpell/threat.WAV
22.214	4.443	0	1	0.973	Tones/nullsilence.WAV	Tones/nullsilence.WAV
26.657	4.443	5	1	0.941	Tones/600.WAV	Tones/600.WAV
31.1	4.442	5	1	0.972	Tones/325.WAV	Tones/325.WAV
35.542	4.443	1	1	0.986	RhymeSpell/car.WAV	RhymeSpell/star.WAV
39.985	4.443	0	1	0.901	Tones/nullsilence.WAV	Tones/nullsilence.WAV
44.428	4.443	3	1	0.927	RhymeSpell/flash.WAV	RhymeSpell/wash.WAV
48.871	4.443	6	1	0.845	Tones/425600750.WAV	Tones/425600750.WAV
53.314	4.443	0	1	1.074	Tones/nullsilence.WAV	Tones/nullsilence.WAV
57.757	4.442	0	1	1.068	Tones/nullsilence.WAV	Tones/nullsilence.WAV
62.199	4.443	4	1	1.1	RhymeSpell/name.WAV	RhymeSpell/knee.WAV
66.642	4.443	4	1	1.121	RhymeSpell/cap.WAV	RhymeSpell/north.WAV
71.085	4.443	0	1	1.087	Tones/nullsilence.WAV	Tones/nullsilence.WAV
75.528	4.443	6	0	0.928	Tones/550800525.WAV	Tones/550800600.WAV
79.971	4.443	6	0	0.916	Tones/350825400.WAV	Tones/425825400.WAV
84.414	4.442	0	1	0.851	Tones/nullsilence.WAV	Tones/nullsilence.WAV
88.856	4.443	1	1	1.35	RhymeSpell/page.WAV	RhymeSpell/stage.WAV
93.299	4.443	2	0	1.135	RhymeSpell/woe.WAV	RhymeSpell/show.WAV
97.742	4.443	0	1	1.048	Tones/nullsilence.WAV	Tones/nullsilence.WAV
102.185	4.443	4	1	1.115	RhymeSpell/scheme.WAV	RhymeSpell/saint.WAV
106.628	4.443	2	0	1.038	RhymeSpell/foe.WAV	RhymeSpell/stow.WAV
111.071	4.443	0	1	1.091	Tones/nullsilence.WAV	Tones/nullsilence.WAV
115.514	4.442	6	1	0.861	Tones/650475300.WAV	Tones/650475300.WAV
119.956	4.443	6	0	0.931	Tones/425675500.WAV	Tones/425750500.WAV
124.399	4.443	0	1	0.899	Tones/nullsilence.WAV	Tones/nullsilence.WAV
128.842	4.443	5	1	0.96	Tones/350.WAV	Tones/425.WAV
133.285	4.443	0	1	1.085	Tones/nullsilence.WAV	Tones/nullsilence.WAV
137.728	4.443	2	1	1.226	RhymeSpell/weird.WAV	RhymeSpell/beard.WAV
142.171	4.442	1	1	1.249	RhymeSpell/cage.WAV	RhymeSpell/rage.WAV
146.613	4.443	3	0	0.994	RhymeSpell/grand.WAV	RhymeSpell/wand.WAV
151.056	4.443	6	1	0.98	Tones/875575325.WAV	Tones/875575400.WAV
155.499	4.443	3	1	1.452	RhymeSpell/breast.WAV	RhymeSpell/feast.WAV
159.942	4.443	0	1	1.048	Tones/nullsilence.WAV	Tones/nullsilence.WAV
164.385	4.443	5	1	1.093	Tones/850.WAV	Tones/850.WAV
168.828	4.442	0	1	0.923	Tones/nullsilence.WAV	Tones/nullsilence.WAV
173.27	4.443	6	0	1.096	Tones/725400775.WAV	Tones/650400775.WAV
177.713	4.443	2	1	1.814	RhymeSpell/plea.WAV	RhymeSpell/key.WAV
182.156	4.443	4	1	1.451	RhymeSpell/boom.WAV	RhymeSpell/past.WAV
186.599	4.443	5	0	1.083	Tones/775.WAV	Tones/700.WAV
191.042	4.443	0	1	1.178	Tones/nullsilence.WAV	Tones/nullsilence.WAV
195.485	4.442	0	1	1.058	Tones/nullsilence.WAV	Tones/nullsilence.WAV
199.927	4.443	4	1	1.242	RhymeSpell/brass.WAV	RhymeSpell/gut.WAV
204.37	4.443	0	1	0.878	Tones/nullsilence.WAV	Tones/nullsilence.WAV
208.813	4.443	4	1	1.096	RhymeSpell/nail.WAV	RhymeSpell/weep.WAV
213.256	4.443	0	1	1.12	Tones/nullsilence.WAV	Tones/nullsilence.WAV
217.699	4.443	3	0	1.08	RhymeSpell/christ.WAV	RhymeSpell/twist.WAV
222.142	4.443	5	1	1.103	Tones/625.WAV	Tones/625.WAV
226.585	4.442	2	0	1.464	RhymeSpell/froze.WAV	RhymeSpell/nose.WAV
231.027	4.443	0	1	1.116	Tones/nullsilence.WAV	Tones/nullsilence.WAV
235.47	4.443	1	1	1.182	RhymeSpell/cork.WAV	RhymeSpell/stork.WAV
239.913	4.443	0	1	0.961	Tones/nullsilence.WAV	Tones/nullsilence.WAV
244.356	4.443	4	1	1.095	RhymeSpell/food.WAV	RhymeSpell/brought.WAV
248.799	4.443	3	1	1.779	RhymeSpell/gone.WAV	RhymeSpell/phone.WAV
253.242	4.442	0	1	1.451	Tones/nullsilence.WAV	Tones/nullsilence.WAV
257.684	4.443	0	1	1.264	Tones/nullsilence.WAV	Tones/nullsilence.WAV
262.127	4.443	4	1	1.017	RhymeSpell/jet.WAV	RhymeSpell/pace.WAV
266.57	4.443	0	1	1.11	Tones/nullsilence.WAV	Tones/nullsilence.WAV
271.013	4.443	1	0	1.338	RhymeSpell/grow.WAV	RhymeSpell/snow.WAV
275.456	4.443	1	1	1.288	RhymeSpell/fluff.WAV	RhymeSpell/puff.WAV
279.899	4.442	6	1	1.041	Tones/325500725.WAV	Tones/325500725.WAV
284.341	4.443	6	0	0.967	Tones/625450850.WAV	Tones/625450775.WAV
288.784	4.443	0	1	1.049	Tones/nullsilence.WAV	Tones/nullsilence.WAV
293.227	4.443	4	1	1.284	RhymeSpell/calm.WAV	RhymeSpell/fame.WAV
297.67	4.443	0	1	1.02	Tones/nullsilence.WAV	Tones/nullsilence.WAV
302.113	4.443	2	1	1.243	RhymeSpell/grade.WAV	RhymeSpell/laid.WAV
306.556	4.442	0	1	1.049	Tones/nullsilence.WAV	Tones/nullsilence.WAV
310.998	4.443	1	1	1.548	RhymeSpell/care.WAV	RhymeSpell/rare.WAV
315.441	4.443	4	1	1.259	RhymeSpell/fall.WAV	RhymeSpell/tint.WAV
319.884	4.443	1	1	1.01	RhymeSpell/note.WAV	RhymeSpell/wrote.WAV
324.327	4.443	5	1	1.088	Tones/800.WAV	Tones/800.WAV
328.77	4.443	5	1	1.235	Tones/375.WAV	Tones/450.WAV
333.213	4.442	0	1	1.127	Tones/nullsilence.WAV	Tones/nullsilence.WAV
337.655	4.443	4	1	1.159	RhymeSpell/splash.WAV	RhymeSpell/braid.WAV
342.098	4.443	0	1	0.902	Tones/nullsilence.WAV	Tones/nullsilence.WAV
346.541	4.443	1	1	1.259	RhymeSpell/spruce.WAV	RhymeSpell/truce.WAV
350.984	4.443	1	1	1.134	RhymeSpell/shell.WAV	RhymeSpell/tell.WAV
355.427	4.443	1	1	1.299	RhymeSpell/fist.WAV	RhymeSpell/gist.WAV
359.87	4.443	6	1	0.984	Tones/875675300.WAV	Tones/875675300.WAV
364.313	4.442	3	0	1.124	RhymeSpell/phase.WAV	RhymeSpell/case.WAV
368.755	4.443	2	0	1.195	RhymeSpell/run.WAV	RhymeSpell/ton.WAV
373.198	4.443	0	1	0.842	Tones/nullsilence.WAV	Tones/nullsilence.WAV
377.641	4.443	5	1	1.041	Tones/650.WAV	Tones/575.WAV
382.084	4.443	3	1	1.086	RhymeSpell/scarce.WAV	RhymeSpell/farce.WAV
386.527	4.443	4	1	1.291	RhymeSpell/half.WAV	RhymeSpell/bake.WAV
390.97	4.442	1	1	0.913	RhymeSpell/cart.WAV	RhymeSpell/smart.WAV
395.412	4.443	0	1	1.053	Tones/nullsilence.WAV	Tones/nullsilence.WAV
399.855	4.443	6	1	1.172	Tones/375750475.WAV	Tones/375750475.WAV
404.298	4.443	0	1	1.067	Tones/nullsilence.WAV	Tones/nullsilence.WAV
408.741	4.443	0	1	0.946	Tones/nullsilence.WAV	Tones/nullsilence.WAV
413.184	4.443	2	1	1.204	RhymeSpell/hood.WAV	RhymeSpell/should.WAV
417.627	4.442	0	1	0.881	Tones/nullsilence.WAV	Tones/nullsilence.WAV
422.069	4.443	6	1	0.913	Tones/375800525.WAV	Tones/375800525.WAV
426.512	4.443	2	1	1.481	RhymeSpell/fruit.WAV	RhymeSpell/loot.WAV
430.955	4.443	0	1	1.139	Tones/nullsilence.WAV	Tones/nullsilence.WAV
435.398	4.443	4	1	1.753	RhymeSpell/palm.WAV	RhymeSpell/salt.WAV
439.841	4.443	3	0	1.31	RhymeSpell/shall.WAV	RhymeSpell/call.WAV
444.284	4.442	0	1	0.7	Tones/nullsilence.WAV	Tones/nullsilence.WAV
448.726	4.443	1	1	1.354	RhymeSpell/clear.WAV	RhymeSpell/fear.WAV
453.169	4.443	2	1	1.122	RhymeSpell/view.WAV	RhymeSpell/few.WAV
457.612	4.443	5	1	1.009	Tones/300.WAV	Tones/375.WAV
462.055	4.443	0	1	1.177	Tones/nullsilence.WAV	Tones/nullsilence.WAV
466.498	4.443	5	1	0.936	Tones/575.WAV	Tones/650.WAV
470.941	4.443	0	1	1.074	Tones/nullsilence.WAV	Tones/nullsilence.WAV
475.384	4.438	4	1	1.1	RhymeSpell/crease.WAV	RhymeSpell/shave.WAV
