onset	duration	trial_type	accuracy	response_time	stim1_file	stim2_file
0.0	4.443	3	1	1.509	Semantic/handle.WAV	Semantic/depth.WAV
4.443	4.442	2	1	1.305	Semantic/yarn.WAV	Semantic/knit.WAV
8.885	4.443	3	1	1.672	Semantic/dessert.WAV	Semantic/bony.WAV
13.328	4.443	0	1	2.449	Tones/nullsilence.WAV	Tones/nullsilence.WAV
17.771	4.443	2	1	1.281	Semantic/dish.WAV	Semantic/plate.WAV
22.214	4.443	4	1	1.075	Tones/675.WAV	Tones/600.WAV
26.657	4.443	0	1	2.256	Tones/nullsilence.WAV	Tones/nullsilence.WAV
31.1	4.443	4	1	1.725	Tones/600.WAV	Tones/600.WAV
35.543	4.442	4	1	1.134	Tones/325.WAV	Tones/325.WAV
39.985	4.443	4	1	1.365	Tones/350.WAV	Tones/425.WAV
44.428	4.443	0	1	2.62	Tones/nullsilence.WAV	Tones/nullsilence.WAV
48.871	4.443	4	1	1.645	Tones/850.WAV	Tones/850.WAV
53.314	4.443	0	1	1.71	Tones/nullsilence.WAV	Tones/nullsilence.WAV
57.757	4.443	3	1	1.653	Semantic/flush.WAV	Semantic/cliff.WAV
62.2	4.442	0	1	1.83	Tones/nullsilence.WAV	Tones/nullsilence.WAV
66.642	4.443	1	1	1.319	Semantic/ape.WAV	Semantic/monkey.WAV
71.085	4.443	1	1	1.195	Semantic/spoon.WAV	Semantic/fork.WAV
75.528	4.443	0	1	3.029	Tones/nullsilence.WAV	Tones/nullsilence.WAV
79.971	4.443	1	1	1.291	Semantic/awake.WAV	Semantic/asleep.WAV
84.414	4.443	0	1	1.38	Tones/nullsilence.WAV	Tones/nullsilence.WAV
88.857	4.442	2	1	1.235	Semantic/senate.WAV	Semantic/congress.WAV
93.299	4.443	0	1	1.615	Tones/nullsilence.WAV	Tones/nullsilence.WAV
97.742	4.443	3	1	1.554	Semantic/steam.WAV	Semantic/gap.WAV
102.185	4.443	0	1	2.371	Tones/nullsilence.WAV	Tones/nullsilence.WAV
106.628	4.443	2	1	1.025	Semantic/checkers.WAV	Semantic/chess.WAV
111.071	4.443	5	1	1.335	Tones/425600750.WAV	Tones/425600750.WAV
115.514	4.443	0	1	1.485	Tones/nullsilence.WAV	Tones/nullsilence.WAV
119.957	4.442	1	1	1.426	Semantic/rodent.WAV	Semantic/rat.WAV
124.399	4.443	2	1	1.218	Semantic/robber.WAV	Semantic/thief.WAV
128.842	4.443	3	1	1.672	Semantic/bone.WAV	Semantic/mountain.WAV
133.285	4.443	4	1	1.45	Tones/775.WAV	Tones/700.WAV
137.728	4.443	2	1	1.261	Semantic/purse.WAV	Semantic/wallet.WAV
142.171	4.443	0	1	1.677	Tones/nullsilence.WAV	Tones/nullsilence.WAV
146.614	4.442	2	1	1.315	Semantic/sunny.WAV	Semantic/cloudy.WAV
151.056	4.443	2	1	1.714	Semantic/hide.WAV	Semantic/seek.WAV
155.499	4.443	0	1	2.509	Tones/nullsilence.WAV	Tones/nullsilence.WAV
159.942	4.443	1	1	1.16	Semantic/mom.WAV	Semantic/dad.WAV
164.385	4.443	4	1	1.645	Tones/625.WAV	Tones/625.WAV
168.828	4.443	3	0	1.752	Semantic/joke.WAV	Semantic/chart.WAV
173.271	4.442	3	0	1.638	Semantic/heavy.WAV	Semantic/wish.WAV
177.713	4.443	3	1	1.542	Semantic/plug.WAV	Semantic/belly.WAV
182.156	4.443	0	1	1.56	Tones/nullsilence.WAV	Tones/nullsilence.WAV
186.599	4.443	3	1	1.477	Semantic/steer.WAV	Semantic/toss.WAV
191.042	4.443	2	1	2.182	Semantic/minus.WAV	Semantic/subtract.WAV
195.485	4.443	0	0	n/a	Tones/nullsilence.WAV	Tones/nullsilence.WAV
199.928	4.443	4	1	1.261	Tones/800.WAV	Tones/800.WAV
204.371	4.442	2	1	1.414	Semantic/fingers.WAV	Semantic/hands.WAV
208.813	4.443	4	1	1.161	Tones/375.WAV	Tones/450.WAV
213.256	4.443	0	1	2.277	Tones/nullsilence.WAV	Tones/nullsilence.WAV
217.699	4.443	5	0	1.69	Tones/550800525.WAV	Tones/550800600.WAV
222.142	4.443	0	1	2.407	Tones/nullsilence.WAV	Tones/nullsilence.WAV
226.585	4.443	4	1	2.237	Tones/650.WAV	Tones/575.WAV
231.028	4.442	0	1	2.476	Tones/nullsilence.WAV	Tones/nullsilence.WAV
235.47	4.443	3	1	1.21	Semantic/forgave.WAV	Semantic/maiden.WAV
239.913	4.443	0	1	1.353	Tones/nullsilence.WAV	Tones/nullsilence.WAV
244.356	4.443	1	0	2.362	Semantic/supper.WAV	Semantic/dinner.WAV
248.799	4.443	0	1	1.707	Tones/nullsilence.WAV	Tones/nullsilence.WAV
253.242	4.443	3	1	1.286	Semantic/flow.WAV	Semantic/teaching.WAV
257.685	4.443	3	1	1.105	Semantic/spongy.WAV	Semantic/madam.WAV
262.128	4.442	0	1	1.587	Tones/nullsilence.WAV	Tones/nullsilence.WAV
266.57	4.443	5	0	1.341	Tones/350825400.WAV	Tones/425825400.WAV
271.013	4.443	5	1	1.146	Tones/650475300.WAV	Tones/650475300.WAV
275.456	4.443	1	1	1.23	Semantic/hammer.WAV	Semantic/nail.WAV
279.899	4.443	2	0	1.69	Semantic/earth.WAV	Semantic/ground.WAV
284.342	4.443	5	0	2.212	Tones/425675500.WAV	Tones/425750500.WAV
288.785	4.442	0	1	1.771	Tones/nullsilence.WAV	Tones/nullsilence.WAV
293.227	4.443	4	1	1.239	Tones/300.WAV	Tones/375.WAV
297.67	4.443	0	1	1.453	Tones/nullsilence.WAV	Tones/nullsilence.WAV
302.113	4.443	2	1	0.896	Semantic/teach.WAV	Semantic/learn.WAV
306.556	4.443	0	1	1.294	Tones/nullsilence.WAV	Tones/nullsilence.WAV
310.999	4.443	1	1	0.817	Semantic/ship.WAV	Semantic/boat.WAV
315.442	4.442	0	1	1.637	Tones/nullsilence.WAV	Tones/nullsilence.WAV
319.884	4.443	1	1	1.03	Semantic/life.WAV	Semantic/death.WAV
324.327	4.443	0	1	2.948	Tones/nullsilence.WAV	Tones/nullsilence.WAV
328.77	4.443	2	1	2.8	Semantic/choir.WAV	Semantic/chorus.WAV
333.213	4.443	4	0	n/a	Tones/575.WAV	Tones/650.WAV
337.656	4.443	0	0	n/a	Tones/nullsilence.WAV	Tones/nullsilence.WAV
342.099	4.443	3	1	1.739	Semantic/note.WAV	Semantic/press.WAV
346.542	4.442	5	1	1.788	Tones/875575325.WAV	Tones/875575400.WAV
350.984	4.443	5	0	1.787	Tones/725400775.WAV	Tones/650400775.WAV
355.427	4.443	1	1	1.154	Semantic/jigsaw.WAV	Semantic/puzzle.WAV
359.87	4.443	0	1	2.093	Tones/nullsilence.WAV	Tones/nullsilence.WAV
364.313	4.443	1	1	1.049	Semantic/film.WAV	Semantic/movie.WAV
368.756	4.443	0	1	1.941	Tones/nullsilence.WAV	Tones/nullsilence.WAV
373.199	4.442	4	1	1.878	Tones/700.WAV	Tones/700.WAV
377.641	4.443	5	1	1.484	Tones/325500725.WAV	Tones/325500725.WAV
382.084	4.443	5	0	n/a	Tones/625450850.WAV	Tones/625450775.WAV
386.527	4.443	0	1	1.398	Tones/nullsilence.WAV	Tones/nullsilence.WAV
390.97	4.443	5	1	1.97	Tones/875675300.WAV	Tones/875675300.WAV
395.413	4.443	5	1	1.514	Tones/375750475.WAV	Tones/375750475.WAV
399.856	4.439	0	1	3.041	Tones/nullsilence.WAV	Tones/nullsilence.WAV
