onset	duration	trial_type	accuracy	response_time	stim1_file	stim2_file
0.0	4.443	4	0	2.734	Tones/450.WAV	Tones/525.WAV
4.443	4.442	2	1	1.301	Semantic/human.WAV	Semantic/person.WAV
8.885	4.443	0	1	3.142	Tones/nullsilence.WAV	Tones/nullsilence.WAV
13.328	4.443	4	0	2.816	Tones/825.WAV	Tones/750.WAV
17.771	4.443	5	1	1.18	Tones/375800525.WAV	Tones/375800525.WAV
22.214	4.443	0	1	1.992	Tones/nullsilence.WAV	Tones/nullsilence.WAV
26.657	4.443	5	1	1.598	Tones/350475625.WAV	Tones/350475625.WAV
31.1	4.443	4	1	1.234	Tones/875.WAV	Tones/875.WAV
35.543	4.442	4	1	0.935	Tones/525.WAV	Tones/525.WAV
39.985	4.443	0	1	2.566	Tones/nullsilence.WAV	Tones/nullsilence.WAV
44.428	4.443	1	1	1.069	Semantic/web.WAV	Semantic/spider.WAV
48.871	4.443	2	1	1.08	Semantic/dig.WAV	Semantic/shovel.WAV
53.314	4.443	0	1	1.489	Tones/nullsilence.WAV	Tones/nullsilence.WAV
57.757	4.443	3	1	1.246	Semantic/trade.WAV	Semantic/square.WAV
62.2	4.442	5	0	1.386	Tones/325575725.WAV	Tones/325500725.WAV
66.642	4.443	1	1	0.772	Semantic/murder.WAV	Semantic/kill.WAV
71.085	4.443	0	1	1.429	Tones/nullsilence.WAV	Tones/nullsilence.WAV
75.528	4.443	1	1	1.025	Semantic/trash.WAV	Semantic/garbage.WAV
79.971	4.443	0	1	1.786	Tones/nullsilence.WAV	Tones/nullsilence.WAV
84.414	4.443	1	1	1.249	Semantic/tall.WAV	Semantic/short.WAV
88.857	4.442	0	0	n/a	Tones/nullsilence.WAV	Tones/nullsilence.WAV
93.299	4.443	2	1	2.179	Semantic/raisin.WAV	Semantic/prune.WAV
97.742	4.443	0	1	1.533	Tones/nullsilence.WAV	Tones/nullsilence.WAV
102.185	4.443	1	1	1.24	Semantic/baggage.WAV	Semantic/luggage.WAV
106.628	4.443	0	1	1.69	Tones/nullsilence.WAV	Tones/nullsilence.WAV
111.071	4.443	2	1	1.405	Semantic/picture.WAV	Semantic/painting.WAV
115.514	4.443	2	1	1.646	Semantic/truth.WAV	Semantic/honest.WAV
119.957	4.442	0	1	2.003	Tones/nullsilence.WAV	Tones/nullsilence.WAV
124.399	4.443	3	1	1.025	Semantic/gently.WAV	Semantic/ceiling.WAV
128.842	4.443	0	1	1.448	Tones/nullsilence.WAV	Tones/nullsilence.WAV
133.285	4.443	4	1	2.023	Tones/425.WAV	Tones/425.WAV
137.728	4.443	0	1	1.499	Tones/nullsilence.WAV	Tones/nullsilence.WAV
142.171	4.443	1	1	1.145	Semantic/buyer.WAV	Semantic/seller.WAV
146.614	4.442	1	1	1.736	Semantic/insect.WAV	Semantic/bug.WAV
151.056	4.443	2	1	1.274	Semantic/cactus.WAV	Semantic/prickly.WAV
155.499	4.443	0	0	n/a	Tones/nullsilence.WAV	Tones/nullsilence.WAV
159.942	4.443	1	1	1.049	Semantic/big.WAV	Semantic/small.WAV
164.385	4.443	0	1	1.336	Tones/nullsilence.WAV	Tones/nullsilence.WAV
168.828	4.443	3	1	1.842	Semantic/stack.WAV	Semantic/chef.WAV
173.271	4.442	0	1	1.62	Tones/nullsilence.WAV	Tones/nullsilence.WAV
177.713	4.443	3	1	1.388	Semantic/headed.WAV	Semantic/thirty.WAV
182.156	4.443	0	1	1.398	Tones/nullsilence.WAV	Tones/nullsilence.WAV
186.599	4.443	1	1	1.268	Semantic/summer.WAV	Semantic/winter.WAV
191.042	4.443	4	1	1.982	Tones/400.WAV	Tones/400.WAV
195.485	4.443	0	1	2.133	Tones/nullsilence.WAV	Tones/nullsilence.WAV
199.928	4.443	1	1	1.571	Semantic/itch.WAV	Semantic/scratch.WAV
204.371	4.442	4	1	1.201	Tones/500.WAV	Tones/500.WAV
208.813	4.443	3	1	1.275	Semantic/turtle.WAV	Semantic/boom.WAV
213.256	4.443	0	1	1.849	Tones/nullsilence.WAV	Tones/nullsilence.WAV
217.699	4.443	5	0	n/a	Tones/425700850.WAV	Tones/425700775.WAV
222.142	4.443	0	1	1.628	Tones/nullsilence.WAV	Tones/nullsilence.WAV
226.585	4.443	4	0	n/a	Tones/725.WAV	Tones/650.WAV
231.028	4.442	1	1	1.138	Semantic/bunny.WAV	Semantic/rabbit.WAV
235.47	4.443	2	1	1.367	Semantic/sneeze.WAV	Semantic/cough.WAV
239.913	4.443	3	1	1.054	Semantic/secret.WAV	Semantic/tone.WAV
244.356	4.443	1	1	1.966	Semantic/fuel.WAV	Semantic/gas.WAV
248.799	4.443	0	1	2.047	Tones/nullsilence.WAV	Tones/nullsilence.WAV
253.242	4.443	3	1	1.748	Semantic/lord.WAV	Semantic/oil.WAV
257.685	4.442	2	1	0.98	Semantic/sly.WAV	Semantic/sneaky.WAV
262.127	4.443	0	1	2.328	Tones/nullsilence.WAV	Tones/nullsilence.WAV
266.57	4.443	0	0	n/a	Tones/nullsilence.WAV	Tones/nullsilence.WAV
271.013	4.443	3	1	1.367	Semantic/pirate.WAV	Semantic/bandage.WAV
275.456	4.443	4	1	2.07	Tones/550.WAV	Tones/550.WAV
279.899	4.443	0	1	2.215	Tones/nullsilence.WAV	Tones/nullsilence.WAV
284.342	4.443	5	1	1.549	Tones/525800450.WAV	Tones/525800450.WAV
288.785	4.442	2	1	1.081	Semantic/call.WAV	Semantic/phone.WAV
293.227	4.443	0	1	1.533	Tones/nullsilence.WAV	Tones/nullsilence.WAV
297.67	4.443	1	1	1.466	Semantic/handbag.WAV	Semantic/purse.WAV
302.113	4.443	2	1	0.888	Semantic/pimple.WAV	Semantic/zit.WAV
306.556	4.443	0	1	1.471	Tones/nullsilence.WAV	Tones/nullsilence.WAV
310.999	4.443	5	0	2.699	Tones/600550400.WAV	Tones/675550400.WAV
315.442	4.442	4	1	1.074	Tones/750.WAV	Tones/675.WAV
319.884	4.443	0	1	3.29	Tones/nullsilence.WAV	Tones/nullsilence.WAV
324.327	4.443	3	1	1.299	Semantic/mansion.WAV	Semantic/super.WAV
328.77	4.443	2	1	1.114	Semantic/skunk.WAV	Semantic/stink.WAV
333.213	4.443	0	1	2.698	Tones/nullsilence.WAV	Tones/nullsilence.WAV
337.656	4.443	5	0	2.513	Tones/450650850.WAV	Tones/375650850.WAV
342.099	4.443	0	1	1.661	Tones/nullsilence.WAV	Tones/nullsilence.WAV
346.542	4.442	5	1	2.068	Tones/750300700.WAV	Tones/750300700.WAV
350.984	4.443	5	1	1.065	Tones/775625825.WAV	Tones/775625825.WAV
355.427	4.443	5	1	1.362	Tones/875675500.WAV	Tones/875675500.WAV
359.87	4.443	0	1	1.413	Tones/nullsilence.WAV	Tones/nullsilence.WAV
364.313	4.443	5	1	0.956	Tones/650350575.WAV	Tones/650350575.WAV
368.756	4.443	5	0	1.908	Tones/700550775.WAV	Tones/700475775.WAV
373.199	4.442	3	1	1.396	Semantic/spell.WAV	Semantic/dim.WAV
377.641	4.443	3	1	1.11	Semantic/bacon.WAV	Semantic/wipe.WAV
382.084	4.443	4	0	1.948	Tones/475.WAV	Tones/550.WAV
386.527	4.443	5	0	1.216	Tones/825600375.WAV	Tones/825675375.WAV
390.97	4.439	0	1	1.076	Tones/nullsilence.WAV	Tones/nullsilence.WAV
