onset	duration	trial_type	accuracy	response_time	stim1_file	stim2_file
0.0	4.443	2	1	1.219	RhymeSpell/crawl.WAV	RhymeSpell/ball.WAV
4.443	4.443	2	1	1.134	RhymeSpell/moan.WAV	RhymeSpell/bone.WAV
8.886	4.443	0	1	1.064	Tones/nullsilence.WAV	Tones/nullsilence.WAV
13.329	4.443	3	1	1.132	RhymeSpell/harm.WAV	RhymeSpell/warm.WAV
17.772	4.443	0	1	1.093	Tones/nullsilence.WAV	Tones/nullsilence.WAV
22.215	4.442	3	1	1.271	RhymeSpell/dull.WAV	RhymeSpell/pull.WAV
26.657	4.443	5	1	1.095	Tones/700.WAV	Tones/700.WAV
31.1	4.443	1	1	1.291	RhymeSpell/dime.WAV	RhymeSpell/lime.WAV
35.543	4.443	0	1	1.277	Tones/nullsilence.WAV	Tones/nullsilence.WAV
39.986	4.443	1	1	1.347	RhymeSpell/thread.WAV	RhymeSpell/dread.WAV
44.429	4.443	4	1	1.448	RhymeSpell/dash.WAV	RhymeSpell/brow.WAV
48.872	4.442	2	1	1.181	RhymeSpell/though.WAV	RhymeSpell/blow.WAV
53.314	4.443	2	1	1.127	RhymeSpell/greet.WAV	RhymeSpell/neat.WAV
57.757	4.443	0	1	1.096	Tones/nullsilence.WAV	Tones/nullsilence.WAV
62.2	4.443	1	1	1.164	RhymeSpell/mad.WAV	RhymeSpell/pad.WAV
66.643	4.443	0	1	1.218	Tones/nullsilence.WAV	Tones/nullsilence.WAV
71.086	4.443	5	1	1.109	Tones/450.WAV	Tones/525.WAV
75.529	4.442	0	1	1.225	Tones/nullsilence.WAV	Tones/nullsilence.WAV
79.971	4.443	3	1	1.347	RhymeSpell/tough.WAV	RhymeSpell/cough.WAV
84.414	4.443	6	1	1.276	Tones/350475625.WAV	Tones/350475625.WAV
88.857	4.443	1	1	1.337	RhymeSpell/drum.WAV	RhymeSpell/gum.WAV
93.3	4.443	0	1	1.283	Tones/nullsilence.WAV	Tones/nullsilence.WAV
97.743	4.443	5	1	1.118	Tones/825.WAV	Tones/750.WAV
102.186	4.442	5	1	1.141	Tones/875.WAV	Tones/875.WAV
106.628	4.443	2	1	1.425	RhymeSpell/comb.WAV	RhymeSpell/chrome.WAV
111.071	4.443	0	1	1.318	Tones/nullsilence.WAV	Tones/nullsilence.WAV
115.514	4.443	3	1	1.237	RhymeSpell/couch.WAV	RhymeSpell/touch.WAV
119.957	4.443	0	1	1.308	Tones/nullsilence.WAV	Tones/nullsilence.WAV
124.4	4.443	6	1	1.338	Tones/325575725.WAV	Tones/325500725.WAV
128.843	4.443	0	1	1.352	Tones/nullsilence.WAV	Tones/nullsilence.WAV
133.286	4.442	3	1	1.154	RhymeSpell/gull.WAV	RhymeSpell/bull.WAV
137.728	4.443	4	1	1.252	RhymeSpell/goes.WAV	RhymeSpell/lap.WAV
142.171	4.443	5	1	1.219	Tones/525.WAV	Tones/525.WAV
146.614	4.443	1	1	1.284	RhymeSpell/pay.WAV	RhymeSpell/play.WAV
151.057	4.443	0	1	1.324	Tones/nullsilence.WAV	Tones/nullsilence.WAV
155.5	4.443	4	1	1.318	RhymeSpell/staff.WAV	RhymeSpell/gain.WAV
159.943	4.442	5	1	1.205	Tones/425.WAV	Tones/425.WAV
164.385	4.443	0	1	1.147	Tones/nullsilence.WAV	Tones/nullsilence.WAV
168.828	4.443	4	1	1.318	RhymeSpell/scale.WAV	RhymeSpell/fly.WAV
173.271	4.443	0	1	1.269	Tones/nullsilence.WAV	Tones/nullsilence.WAV
177.714	4.443	6	1	1.315	Tones/425700850.WAV	Tones/425700775.WAV
182.157	4.443	0	1	1.439	Tones/nullsilence.WAV	Tones/nullsilence.WAV
186.6	4.442	1	1	1.27	RhymeSpell/hint.WAV	RhymeSpell/print.WAV
191.042	4.443	0	1	1.2	Tones/nullsilence.WAV	Tones/nullsilence.WAV
195.485	4.443	6	1	1.374	Tones/525800450.WAV	Tones/525800450.WAV
199.928	4.443	0	1	1.298	Tones/nullsilence.WAV	Tones/nullsilence.WAV
204.371	4.443	5	1	1.18	Tones/400.WAV	Tones/400.WAV
208.814	4.443	0	1	1.305	Tones/nullsilence.WAV	Tones/nullsilence.WAV
213.257	4.442	3	1	1.193	RhymeSpell/foot.WAV	RhymeSpell/hoot.WAV
217.699	4.443	0	1	1.113	Tones/nullsilence.WAV	Tones/nullsilence.WAV
222.142	4.443	3	1	1.288	RhymeSpell/glove.WAV	RhymeSpell/drove.WAV
226.585	4.443	0	1	1.103	Tones/nullsilence.WAV	Tones/nullsilence.WAV
231.028	4.443	2	1	1.464	RhymeSpell/trade.WAV	RhymeSpell/paid.WAV
235.471	4.443	3	1	1.245	RhymeSpell/moth.WAV	RhymeSpell/both.WAV
239.914	4.443	4	1	1.27	RhymeSpell/start.WAV	RhymeSpell/pure.WAV
244.357	4.442	6	1	1.285	Tones/600550400.WAV	Tones/675550400.WAV
248.799	4.443	0	1	1.325	Tones/nullsilence.WAV	Tones/nullsilence.WAV
253.242	4.443	5	1	1.152	Tones/500.WAV	Tones/500.WAV
257.685	4.443	0	1	1.345	Tones/nullsilence.WAV	Tones/nullsilence.WAV
262.128	4.443	6	1	1.342	Tones/450650850.WAV	Tones/375650850.WAV
266.571	4.443	0	1	1.613	Tones/nullsilence.WAV	Tones/nullsilence.WAV
271.014	4.442	1	1	1.312	RhymeSpell/wall.WAV	RhymeSpell/tall.WAV
275.456	4.443	0	1	1.362	Tones/nullsilence.WAV	Tones/nullsilence.WAV
279.899	4.443	2	1	1.327	RhymeSpell/glad.WAV	RhymeSpell/plaid.WAV
284.342	4.443	0	1	1.143	Tones/nullsilence.WAV	Tones/nullsilence.WAV
288.785	4.443	5	1	1.204	Tones/725.WAV	Tones/650.WAV
293.228	4.443	0	1	1.347	Tones/nullsilence.WAV	Tones/nullsilence.WAV
297.671	4.442	4	1	1.148	RhymeSpell/strut.WAV	RhymeSpell/glint.WAV
302.113	4.443	2	1	1.245	RhymeSpell/sheet.WAV	RhymeSpell/heat.WAV
306.556	4.443	6	1	1.271	Tones/750300700.WAV	Tones/750300700.WAV
310.999	4.443	2	1	1.28	RhymeSpell/whom.WAV	RhymeSpell/womb.WAV
315.442	4.443	4	1	1.238	RhymeSpell/spare.WAV	RhymeSpell/cow.WAV
319.885	4.443	0	1	1.288	Tones/nullsilence.WAV	Tones/nullsilence.WAV
324.328	4.442	3	1	1.421	RhymeSpell/fat.WAV	RhymeSpell/swat.WAV
328.77	4.443	4	1	1.175	RhymeSpell/team.WAV	RhymeSpell/brief.WAV
333.213	4.443	0	1	1.349	Tones/nullsilence.WAV	Tones/nullsilence.WAV
337.656	4.443	5	1	1.149	Tones/550.WAV	Tones/550.WAV
342.099	4.443	0	1	1.295	Tones/nullsilence.WAV	Tones/nullsilence.WAV
346.542	4.443	3	1	1.398	RhymeSpell/bad.WAV	RhymeSpell/wad.WAV
350.985	4.443	1	1	1.441	RhymeSpell/glare.WAV	RhymeSpell/share.WAV
355.428	4.442	0	1	1.422	Tones/nullsilence.WAV	Tones/nullsilence.WAV
359.87	4.443	1	1	1.314	RhymeSpell/cold.WAV	RhymeSpell/told.WAV
364.313	4.443	6	1	1.441	Tones/775625825.WAV	Tones/775625825.WAV
368.756	4.443	1	1	1.488	RhymeSpell/dawn.WAV	RhymeSpell/lawn.WAV
373.199	4.443	1	1	1.298	RhymeSpell/broke.WAV	RhymeSpell/joke.WAV
377.642	4.443	4	1	1.189	RhymeSpell/craft.WAV	RhymeSpell/young.WAV
382.085	4.442	0	1	1.283	Tones/nullsilence.WAV	Tones/nullsilence.WAV
386.527	4.443	3	0	1.393	RhymeSpell/hull.WAV	RhymeSpell/full.WAV
390.97	4.443	3	1	1.316	RhymeSpell/freight.WAV	RhymeSpell/height.WAV
395.413	4.443	5	1	1.135	Tones/750.WAV	Tones/675.WAV
399.856	4.443	2	1	1.335	RhymeSpell/stool.WAV	RhymeSpell/ghoul.WAV
404.299	4.443	2	1	1.417	RhymeSpell/hoe.WAV	RhymeSpell/throw.WAV
408.742	4.442	0	1	1.331	Tones/nullsilence.WAV	Tones/nullsilence.WAV
413.184	4.443	6	1	1.343	Tones/875675500.WAV	Tones/875675500.WAV
417.627	4.443	3	1	1.289	RhymeSpell/cost.WAV	RhymeSpell/ghost.WAV
422.07	4.443	0	1	1.289	Tones/nullsilence.WAV	Tones/nullsilence.WAV
426.513	4.443	6	1	1.36	Tones/650350575.WAV	Tones/650350575.WAV
430.956	4.443	2	1	1.409	RhymeSpell/gas.WAV	RhymeSpell/pass.WAV
435.399	4.442	3	1	1.479	RhymeSpell/blood.WAV	RhymeSpell/wood.WAV
439.841	4.444	0	1	1.192	Tones/nullsilence.WAV	Tones/nullsilence.WAV
444.285	4.442	4	1	1.318	RhymeSpell/vend.WAV	RhymeSpell/space.WAV
448.727	4.443	2	1	1.211	RhymeSpell/choose.WAV	RhymeSpell/lose.WAV
453.17	4.443	6	1	1.345	Tones/700550775.WAV	Tones/700475775.WAV
457.613	4.443	0	1	1.175	Tones/nullsilence.WAV	Tones/nullsilence.WAV
462.056	4.443	6	1	1.397	Tones/825600375.WAV	Tones/825675375.WAV
466.499	4.442	5	1	1.259	Tones/475.WAV	Tones/550.WAV
470.941	4.443	0	1	1.144	Tones/nullsilence.WAV	Tones/nullsilence.WAV
475.384	4.439	0	1	1.172	Tones/nullsilence.WAV	Tones/nullsilence.WAV
