onset	duration	trial_type	accuracy	response_time	stim1_file	stim2_file
0.0	4.442	3	1	1.235	RhymeSpell/mouth.WAV	RhymeSpell/youth.WAV
4.442	4.443	2	1	1.329	RhymeSpell/tone.WAV	RhymeSpell/known.WAV
8.885	4.443	5	1	1.139	Tones/675.WAV	Tones/600.WAV
13.328	4.443	0	1	1.331	Tones/nullsilence.WAV	Tones/nullsilence.WAV
17.771	4.443	3	1	1.276	RhymeSpell/pool.WAV	RhymeSpell/wool.WAV
22.214	4.443	0	1	1.487	Tones/nullsilence.WAV	Tones/nullsilence.WAV
26.657	4.442	5	1	1.302	Tones/600.WAV	Tones/600.WAV
31.099	4.443	5	1	1.186	Tones/325.WAV	Tones/325.WAV
35.542	4.443	1	1	1.367	RhymeSpell/meal.WAV	RhymeSpell/seal.WAV
39.985	4.443	0	1	1.195	Tones/nullsilence.WAV	Tones/nullsilence.WAV
44.428	4.443	3	1	1.32	RhymeSpell/low.WAV	RhymeSpell/vow.WAV
48.871	4.443	6	1	1.382	Tones/425600750.WAV	Tones/425600750.WAV
53.314	4.443	0	1	1.366	Tones/nullsilence.WAV	Tones/nullsilence.WAV
57.757	4.442	0	1	1.458	Tones/nullsilence.WAV	Tones/nullsilence.WAV
62.199	4.443	4	1	1.236	RhymeSpell/wrist.WAV	RhymeSpell/friend.WAV
66.642	4.443	4	1	1.318	RhymeSpell/halt.WAV	RhymeSpell/stain.WAV
71.085	4.443	0	1	1.389	Tones/nullsilence.WAV	Tones/nullsilence.WAV
75.528	4.443	6	1	1.326	Tones/550800525.WAV	Tones/550800600.WAV
79.971	4.443	6	0	1.397	Tones/350825400.WAV	Tones/425825400.WAV
84.414	4.442	0	1	1.345	Tones/nullsilence.WAV	Tones/nullsilence.WAV
88.856	4.443	1	1	1.484	RhymeSpell/cure.WAV	RhymeSpell/sure.WAV
93.299	4.443	2	1	1.227	RhymeSpell/sleek.WAV	RhymeSpell/speak.WAV
97.742	4.443	0	1	1.206	Tones/nullsilence.WAV	Tones/nullsilence.WAV
102.185	4.443	4	1	1.264	RhymeSpell/trust.WAV	RhymeSpell/chalk.WAV
106.628	4.443	2	1	1.251	RhymeSpell/street.WAV	RhymeSpell/wheat.WAV
111.071	4.442	0	1	1.197	Tones/nullsilence.WAV	Tones/nullsilence.WAV
115.513	4.443	6	1	1.237	Tones/650475300.WAV	Tones/650475300.WAV
119.956	4.443	6	1	1.198	Tones/425675500.WAV	Tones/425750500.WAV
124.399	4.443	0	1	1.414	Tones/nullsilence.WAV	Tones/nullsilence.WAV
128.842	4.443	5	1	1.131	Tones/350.WAV	Tones/425.WAV
133.285	4.443	0	1	1.254	Tones/nullsilence.WAV	Tones/nullsilence.WAV
137.728	4.442	2	1	1.429	RhymeSpell/rear.WAV	RhymeSpell/mere.WAV
142.17	4.443	1	1	1.473	RhymeSpell/crown.WAV	RhymeSpell/town.WAV
146.613	4.443	3	1	1.242	RhymeSpell/sword.WAV	RhymeSpell/word.WAV
151.056	4.443	6	1	1.229	Tones/875575325.WAV	Tones/875575400.WAV
155.499	4.443	3	1	1.411	RhymeSpell/head.WAV	RhymeSpell/bead.WAV
159.942	4.443	0	1	2.295	Tones/nullsilence.WAV	Tones/nullsilence.WAV
164.385	4.443	5	1	1.154	Tones/850.WAV	Tones/850.WAV
168.828	4.442	0	1	1.248	Tones/nullsilence.WAV	Tones/nullsilence.WAV
173.27	4.443	6	1	1.21	Tones/725400775.WAV	Tones/650400775.WAV
177.713	4.443	2	1	1.26	RhymeSpell/size.WAV	RhymeSpell/wise.WAV
182.156	4.443	4	1	1.301	RhymeSpell/clash.WAV	RhymeSpell/worse.WAV
186.599	4.443	5	1	1.414	Tones/775.WAV	Tones/700.WAV
191.042	4.443	0	1	1.284	Tones/nullsilence.WAV	Tones/nullsilence.WAV
195.485	4.442	0	1	1.278	Tones/nullsilence.WAV	Tones/nullsilence.WAV
199.927	4.443	4	1	1.186	RhymeSpell/loose.WAV	RhymeSpell/drew.WAV
204.37	4.443	0	1	1.24	Tones/nullsilence.WAV	Tones/nullsilence.WAV
208.813	4.443	4	1	1.285	RhymeSpell/yeast.WAV	RhymeSpell/tooth.WAV
213.256	4.443	0	1	1.183	Tones/nullsilence.WAV	Tones/nullsilence.WAV
217.699	4.443	3	1	1.286	RhymeSpell/shove.WAV	RhymeSpell/wove.WAV
222.142	4.442	5	1	1.222	Tones/625.WAV	Tones/625.WAV
226.584	4.443	2	1	1.408	RhymeSpell/chair.WAV	RhymeSpell/scare.WAV
231.027	4.443	0	1	1.224	Tones/nullsilence.WAV	Tones/nullsilence.WAV
235.47	4.443	1	1	1.433	RhymeSpell/dad.WAV	RhymeSpell/sad.WAV
239.913	4.443	0	1	1.247	Tones/nullsilence.WAV	Tones/nullsilence.WAV
244.356	4.443	4	1	1.331	RhymeSpell/beef.WAV	RhymeSpell/keep.WAV
248.799	4.442	3	1	1.28	RhymeSpell/broad.WAV	RhymeSpell/toad.WAV
253.241	4.443	0	1	1.206	Tones/nullsilence.WAV	Tones/nullsilence.WAV
257.684	4.443	0	1	1.125	Tones/nullsilence.WAV	Tones/nullsilence.WAV
262.127	4.443	4	1	1.139	RhymeSpell/rail.WAV	RhymeSpell/fast.WAV
266.57	4.443	0	1	1.247	Tones/nullsilence.WAV	Tones/nullsilence.WAV
271.013	4.443	1	1	1.413	RhymeSpell/leg.WAV	RhymeSpell/peg.WAV
275.456	4.443	1	1	1.442	RhymeSpell/mule.WAV	RhymeSpell/rule.WAV
279.899	4.442	6	1	1.463	Tones/325500725.WAV	Tones/325500725.WAV
284.341	4.443	6	1	1.296	Tones/625450850.WAV	Tones/625450775.WAV
288.784	4.443	0	1	1.294	Tones/nullsilence.WAV	Tones/nullsilence.WAV
293.227	4.443	4	1	1.293	RhymeSpell/storm.WAV	RhymeSpell/chose.WAV
297.67	4.443	0	1	1.447	Tones/nullsilence.WAV	Tones/nullsilence.WAV
302.113	4.443	2	1	1.29	RhymeSpell/prize.WAV	RhymeSpell/rise.WAV
306.556	4.442	0	1	1.291	Tones/nullsilence.WAV	Tones/nullsilence.WAV
310.998	4.443	1	1	1.451	RhymeSpell/fought.WAV	RhymeSpell/sought.WAV
315.441	4.443	4	1	1.316	RhymeSpell/wage.WAV	RhymeSpell/spice.WAV
319.884	4.443	1	1	1.359	RhymeSpell/beast.WAV	RhymeSpell/least.WAV
324.327	4.443	5	1	1.313	Tones/800.WAV	Tones/800.WAV
328.77	4.443	5	1	1.276	Tones/375.WAV	Tones/450.WAV
333.213	4.442	0	1	1.283	Tones/nullsilence.WAV	Tones/nullsilence.WAV
337.655	4.443	4	1	1.352	RhymeSpell/dome.WAV	RhymeSpell/fool.WAV
342.098	4.443	0	1	1.323	Tones/nullsilence.WAV	Tones/nullsilence.WAV
346.541	4.443	1	1	1.287	RhymeSpell/grant.WAV	RhymeSpell/slant.WAV
350.984	4.443	1	1	1.379	RhymeSpell/numb.WAV	RhymeSpell/thumb.WAV
355.427	4.443	1	0	1.342	RhymeSpell/chess.WAV	RhymeSpell/press.WAV
359.87	4.442	6	1	1.351	Tones/875675300.WAV	Tones/875675300.WAV
364.312	4.443	3	1	1.351	RhymeSpell/damp.WAV	RhymeSpell/swamp.WAV
368.755	4.443	2	1	1.314	RhymeSpell/true.WAV	RhymeSpell/grew.WAV
373.198	4.443	0	1	1.195	Tones/nullsilence.WAV	Tones/nullsilence.WAV
377.641	4.443	5	1	1.203	Tones/650.WAV	Tones/575.WAV
382.084	4.443	3	1	1.325	RhymeSpell/shown.WAV	RhymeSpell/clown.WAV
386.527	4.443	4	1	1.334	RhymeSpell/paint.WAV	RhymeSpell/sigh.WAV
390.97	4.442	1	1	1.321	RhymeSpell/stone.WAV	RhymeSpell/zone.WAV
395.412	4.443	0	1	1.087	Tones/nullsilence.WAV	Tones/nullsilence.WAV
399.855	4.443	6	1	1.453	Tones/375750475.WAV	Tones/375750475.WAV
404.298	4.443	0	1	1.371	Tones/nullsilence.WAV	Tones/nullsilence.WAV
408.741	4.443	0	1	1.219	Tones/nullsilence.WAV	Tones/nullsilence.WAV
413.184	4.443	2	1	1.383	RhymeSpell/spear.WAV	RhymeSpell/sphere.WAV
417.627	4.442	0	1	1.188	Tones/nullsilence.WAV	Tones/nullsilence.WAV
422.069	4.443	6	0	1.26	Tones/375800525.WAV	Tones/375800525.WAV
426.512	4.443	2	1	1.285	RhymeSpell/pro.WAV	RhymeSpell/mow.WAV
430.955	4.443	0	1	1.286	Tones/nullsilence.WAV	Tones/nullsilence.WAV
435.398	4.443	4	1	1.398	RhymeSpell/home.WAV	RhymeSpell/form.WAV
439.841	4.443	3	0	1.626	RhymeSpell/smooth.WAV	RhymeSpell/booth.WAV
444.284	4.442	0	1	1.252	Tones/nullsilence.WAV	Tones/nullsilence.WAV
448.726	4.443	1	1	1.334	RhymeSpell/grief.WAV	RhymeSpell/thief.WAV
453.169	4.443	2	1	1.306	RhymeSpell/top.WAV	RhymeSpell/swap.WAV
457.612	4.443	5	1	1.175	Tones/300.WAV	Tones/375.WAV
462.055	4.443	0	1	1.116	Tones/nullsilence.WAV	Tones/nullsilence.WAV
466.498	4.443	5	1	1.174	Tones/575.WAV	Tones/650.WAV
470.941	4.442	0	1	1.228	Tones/nullsilence.WAV	Tones/nullsilence.WAV
475.383	4.439	4	1	1.346	RhymeSpell/dream.WAV	RhymeSpell/blame.WAV
