onset	duration	trial_type	accuracy	response_time	stim1_file	stim2_file
0.0	4.443	3	1	1.054	Semantic/system.bmp	Semantic/head2.bmp
4.443	4.442	2	1	1.095	Semantic/speak.bmp	Semantic/talk2.bmp
8.885	4.443	3	1	1.109	Semantic/cobra.bmp	Semantic/slipper2.bmp
13.328	4.443	0	1	0.964	Semantic/null.bmp	Semantic/null.bmp
17.771	4.443	2	1	1.18	Semantic/distance.bmp	Semantic/mile1.bmp
22.214	4.443	4	1	1.08	Symbols/t.bmp	Symbols/g2.bmp
26.657	4.443	0	1	0.994	Semantic/null.bmp	Semantic/null.bmp
31.1	4.443	4	1	0.966	Symbols/w.bmp	Symbols/w2.bmp
35.543	4.442	4	1	0.878	Symbols/u.bmp	Symbols/u2.bmp
39.985	4.443	4	1	0.963	Symbols/s.bmp	Symbols/j2.bmp
44.428	4.443	0	1	0.919	Semantic/null.bmp	Semantic/null.bmp
48.871	4.443	4	1	0.952	Symbols/l.bmp	Symbols/l2.bmp
53.314	4.443	0	1	0.916	Semantic/null.bmp	Semantic/null.bmp
57.757	4.443	3	1	1.144	Semantic/chill.bmp	Semantic/hawk2.bmp
62.2	4.442	0	1	1.107	Semantic/null.bmp	Semantic/null.bmp
66.642	4.443	1	1	1.069	Semantic/thin.bmp	Semantic/fat2.bmp
71.085	4.443	1	1	1.01	Semantic/sketch.bmp	Semantic/draw2.bmp
75.528	4.443	0	1	1.03	Semantic/null.bmp	Semantic/null.bmp
79.971	4.443	1	1	1.139	Semantic/dog.bmp	Semantic/cat1.bmp
84.414	4.443	0	1	1.12	Semantic/null.bmp	Semantic/null.bmp
88.857	4.442	2	1	1.102	Semantic/guide.bmp	Semantic/tour2.bmp
93.299	4.443	0	1	1.15	Semantic/null.bmp	Semantic/null.bmp
97.742	4.443	3	1	1.295	Semantic/adult.bmp	Semantic/pond1.bmp
102.185	4.443	0	1	1.042	Semantic/null.bmp	Semantic/null.bmp
106.628	4.443	2	1	1.172	Semantic/reef.bmp	Semantic/coral1.bmp
111.071	4.443	5	1	1.03	Symbols/mfc.bmp	Symbols/mfc1.bmp
115.514	4.443	0	1	1.012	Semantic/null.bmp	Semantic/null.bmp
119.957	4.442	1	1	1.089	Semantic/little.bmp	Semantic/big1.bmp
124.399	4.443	2	1	1.151	Semantic/motion.bmp	Semantic/movement2.bmp
128.842	4.443	3	1	1.075	Semantic/hoof.bmp	Semantic/stitch2.bmp
133.285	4.443	4	1	0.972	Symbols/c.bmp	Symbols/v1.bmp
137.728	4.443	2	1	1.138	Semantic/salad.bmp	Semantic/lettuce1.bmp
142.171	4.443	0	1	0.637	Semantic/null.bmp	Semantic/null.bmp
146.614	4.442	2	1	1.276	Semantic/lip.bmp	Semantic/kiss1.bmp
151.056	4.443	2	1	1.047	Semantic/shout.bmp	Semantic/yell1.bmp
155.499	4.443	0	1	1.031	Semantic/null.bmp	Semantic/null.bmp
159.942	4.443	1	1	1.064	Semantic/dime.bmp	Semantic/nickel1.bmp
164.385	4.443	4	1	1.004	Symbols/n.bmp	Symbols/n1.bmp
168.828	4.443	3	1	0.889	Semantic/cream.bmp	Semantic/grip2.bmp
173.271	4.442	3	1	1.052	Semantic/trust.bmp	Semantic/dozen1.bmp
177.713	4.443	3	1	0.86	Semantic/sailing.bmp	Semantic/nest2.bmp
182.156	4.443	0	1	1.062	Semantic/null.bmp	Semantic/null.bmp
186.599	4.443	3	1	1.014	Semantic/pigeon.bmp	Semantic/gamble2.bmp
191.042	4.443	2	1	1.09	Semantic/maple.bmp	Semantic/syrup2.bmp
195.485	4.443	0	1	1.095	Semantic/null.bmp	Semantic/null.bmp
199.928	4.443	4	1	0.906	Symbols/i.bmp	Symbols/i2.bmp
204.371	4.442	2	1	1.081	Semantic/hop.bmp	Semantic/skip1.bmp
208.813	4.443	4	1	1.013	Symbols/r.bmp	Symbols/z2.bmp
213.256	4.443	0	1	0.981	Semantic/null.bmp	Semantic/null.bmp
217.699	4.443	5	1	1.012	Symbols/crs.bmp	Symbols/cre2.bmp
222.142	4.443	0	1	1.076	Semantic/null.bmp	Semantic/null.bmp
226.585	4.443	4	1	1.106	Symbols/p.bmp	Symbols/s1.bmp
231.028	4.442	0	1	1.095	Semantic/null.bmp	Semantic/null.bmp
235.47	4.443	3	1	1.076	Semantic/blanket.bmp	Semantic/split2.bmp
239.913	4.443	0	1	0.894	Semantic/null.bmp	Semantic/null.bmp
244.356	4.443	1	1	1.65	Semantic/yours.bmp	Semantic/mine1.bmp
248.799	4.443	0	1	0.966	Semantic/null.bmp	Semantic/null.bmp
253.242	4.443	3	1	1.052	Semantic/corn.bmp	Semantic/blame1.bmp
257.685	4.442	3	1	0.947	Semantic/hunter.bmp	Semantic/lemon2.bmp
262.127	4.443	0	1	1.181	Semantic/null.bmp	Semantic/null.bmp
266.57	4.443	5	1	0.929	Symbols/pcf.bmp	Symbols/kcf2.bmp
271.013	4.443	5	1	1.042	Symbols/van.bmp	Symbols/van2.bmp
275.456	4.443	1	1	0.913	Semantic/prison.bmp	Semantic/jail2.bmp
279.899	4.443	2	1	1.129	Semantic/hoot.bmp	Semantic/owl2.bmp
284.342	4.443	5	0	1.286	Symbols/jzd.bmp	Symbols/jbd2.bmp
288.785	4.442	0	1	1.091	Semantic/null.bmp	Semantic/null.bmp
293.227	4.443	4	1	0.89	Symbols/v.bmp	Symbols/h1.bmp
297.67	4.443	0	1	1.121	Semantic/null.bmp	Semantic/null.bmp
302.113	4.443	2	1	1.085	Semantic/water.bmp	Semantic/drink2.bmp
306.556	4.443	0	1	1.058	Semantic/null.bmp	Semantic/null.bmp
310.999	4.443	1	1	1.04	Semantic/table.bmp	Semantic/chair1.bmp
315.442	4.442	0	1	1.119	Semantic/null.bmp	Semantic/null.bmp
319.884	4.443	1	1	1.074	Semantic/vine.bmp	Semantic/grape2.bmp
324.327	4.443	0	1	0.847	Semantic/null.bmp	Semantic/null.bmp
328.77	4.443	2	1	0.955	Semantic/throw.bmp	Semantic/catch1.bmp
333.213	4.443	4	1	0.889	Symbols/h.bmp	Symbols/c2.bmp
337.656	4.443	0	1	1.065	Semantic/null.bmp	Semantic/null.bmp
342.099	4.442	3	1	1.135	Semantic/able.bmp	Semantic/party2.bmp
346.541	4.443	5	1	0.987	Symbols/ksg.bmp	Symbols/ksj2.bmp
350.984	4.443	5	0	0.962	Symbols/uab.bmp	Symbols/iab1.bmp
355.427	4.443	1	1	1.058	Semantic/lend.bmp	Semantic/borrow1.bmp
359.87	4.443	0	1	1.024	Semantic/null.bmp	Semantic/null.bmp
364.313	4.443	1	1	0.998	Semantic/silver.bmp	Semantic/gold2.bmp
368.756	4.442	0	1	1.01	Semantic/null.bmp	Semantic/null.bmp
373.198	4.443	4	1	1.021	Symbols/m.bmp	Symbols/m2.bmp
377.641	4.443	5	1	0.982	Symbols/upw.bmp	Symbols/upw1.bmp
382.084	4.443	5	1	0.968	Symbols/myh.bmp	Symbols/myl1.bmp
386.527	4.443	0	1	0.894	Semantic/null.bmp	Semantic/null.bmp
390.97	4.443	5	1	1.077	Symbols/hio.bmp	Symbols/hio2.bmp
395.413	4.443	5	1	0.972	Symbols/mey.bmp	Symbols/mey2.bmp
399.856	4.439	0	1	0.957	Semantic/null.bmp	Semantic/null.bmp
