onset	duration	trial_type	accuracy	response_time	stim1_file	stim2_file
0.0	4.443	3	1	1.196	RhymeSpell/took.WAV	RhymeSpell/spook.WAV
4.443	4.443	2	1	1.136	RhymeSpell/quo.WAV	RhymeSpell/glow.WAV
8.886	4.443	5	1	1.008	Tones/675.WAV	Tones/600.WAV
13.329	4.442	0	1	0.908	Tones/nullsilence.WAV	Tones/nullsilence.WAV
17.771	4.443	3	1	1.06	RhymeSpell/seat.WAV	RhymeSpell/threat.WAV
22.214	4.443	0	1	1.013	Tones/nullsilence.WAV	Tones/nullsilence.WAV
26.657	4.443	5	1	0.984	Tones/600.WAV	Tones/600.WAV
31.1	4.443	5	1	1.02	Tones/325.WAV	Tones/325.WAV
35.543	4.443	1	1	1.122	RhymeSpell/car.WAV	RhymeSpell/star.WAV
39.986	4.442	0	1	1.074	Tones/nullsilence.WAV	Tones/nullsilence.WAV
44.428	4.443	3	1	1.342	RhymeSpell/flash.WAV	RhymeSpell/wash.WAV
48.871	4.443	6	1	1.102	Tones/425600750.WAV	Tones/425600750.WAV
53.314	4.443	0	1	1.08	Tones/nullsilence.WAV	Tones/nullsilence.WAV
57.757	4.443	0	1	1.004	Tones/nullsilence.WAV	Tones/nullsilence.WAV
62.2	4.443	4	1	1.157	RhymeSpell/name.WAV	RhymeSpell/knee.WAV
66.643	4.442	4	1	1.106	RhymeSpell/cap.WAV	RhymeSpell/north.WAV
71.085	4.443	0	1	1.064	Tones/nullsilence.WAV	Tones/nullsilence.WAV
75.528	4.443	6	1	1.185	Tones/550800525.WAV	Tones/550800600.WAV
79.971	4.443	6	0	1.102	Tones/350825400.WAV	Tones/425825400.WAV
84.414	4.443	0	1	1.061	Tones/nullsilence.WAV	Tones/nullsilence.WAV
88.857	4.443	1	1	1.107	RhymeSpell/page.WAV	RhymeSpell/stage.WAV
93.3	4.443	2	0	1.419	RhymeSpell/woe.WAV	RhymeSpell/show.WAV
97.743	4.442	0	1	1.374	Tones/nullsilence.WAV	Tones/nullsilence.WAV
102.185	4.443	4	1	1.096	RhymeSpell/scheme.WAV	RhymeSpell/saint.WAV
106.628	4.443	2	1	1.692	RhymeSpell/foe.WAV	RhymeSpell/stow.WAV
111.071	4.443	0	1	0.938	Tones/nullsilence.WAV	Tones/nullsilence.WAV
115.514	4.443	6	1	1.068	Tones/650475300.WAV	Tones/650475300.WAV
119.957	4.443	6	1	1.08	Tones/425675500.WAV	Tones/425750500.WAV
124.4	4.442	0	1	1.399	Tones/nullsilence.WAV	Tones/nullsilence.WAV
128.842	4.443	5	1	1.016	Tones/350.WAV	Tones/425.WAV
133.285	4.443	0	1	1.029	Tones/nullsilence.WAV	Tones/nullsilence.WAV
137.728	4.443	2	1	0.915	RhymeSpell/weird.WAV	RhymeSpell/beard.WAV
142.171	4.443	1	1	0.863	RhymeSpell/cage.WAV	RhymeSpell/rage.WAV
146.614	4.443	3	1	1.18	RhymeSpell/grand.WAV	RhymeSpell/wand.WAV
151.057	4.442	6	1	1.099	Tones/875575325.WAV	Tones/875575400.WAV
155.499	4.443	3	0	1.064	RhymeSpell/breast.WAV	RhymeSpell/feast.WAV
159.942	4.443	0	1	1.073	Tones/nullsilence.WAV	Tones/nullsilence.WAV
164.385	4.443	5	1	1.102	Tones/850.WAV	Tones/850.WAV
168.828	4.443	0	1	1.149	Tones/nullsilence.WAV	Tones/nullsilence.WAV
173.271	4.443	6	1	0.968	Tones/725400775.WAV	Tones/650400775.WAV
177.714	4.442	2	1	1.157	RhymeSpell/plea.WAV	RhymeSpell/key.WAV
182.156	4.443	4	1	1.107	RhymeSpell/boom.WAV	RhymeSpell/past.WAV
186.599	4.443	5	1	1.143	Tones/775.WAV	Tones/700.WAV
191.042	4.443	0	1	0.953	Tones/nullsilence.WAV	Tones/nullsilence.WAV
195.485	4.443	0	1	0.939	Tones/nullsilence.WAV	Tones/nullsilence.WAV
199.928	4.443	4	1	1.085	RhymeSpell/brass.WAV	RhymeSpell/gut.WAV
204.371	4.443	0	1	1.187	Tones/nullsilence.WAV	Tones/nullsilence.WAV
208.814	4.442	4	1	1.274	RhymeSpell/nail.WAV	RhymeSpell/weep.WAV
213.256	4.443	0	1	1.325	Tones/nullsilence.WAV	Tones/nullsilence.WAV
217.699	4.443	3	0	1.205	RhymeSpell/christ.WAV	RhymeSpell/twist.WAV
222.142	4.443	5	1	1.031	Tones/625.WAV	Tones/625.WAV
226.585	4.443	2	1	2.14	RhymeSpell/froze.WAV	RhymeSpell/nose.WAV
231.028	4.443	0	1	1.094	Tones/nullsilence.WAV	Tones/nullsilence.WAV
235.471	4.442	1	1	1.161	RhymeSpell/cork.WAV	RhymeSpell/stork.WAV
239.913	4.443	0	1	1.058	Tones/nullsilence.WAV	Tones/nullsilence.WAV
244.356	4.443	4	1	1.116	RhymeSpell/food.WAV	RhymeSpell/brought.WAV
248.799	4.443	3	0	1.219	RhymeSpell/gone.WAV	RhymeSpell/phone.WAV
253.242	4.443	0	1	1.009	Tones/nullsilence.WAV	Tones/nullsilence.WAV
257.685	4.443	0	1	0.892	Tones/nullsilence.WAV	Tones/nullsilence.WAV
262.128	4.442	4	1	0.974	RhymeSpell/jet.WAV	RhymeSpell/pace.WAV
266.57	4.443	0	1	1.041	Tones/nullsilence.WAV	Tones/nullsilence.WAV
271.013	4.443	1	1	1.331	RhymeSpell/grow.WAV	RhymeSpell/snow.WAV
275.456	4.443	1	1	1.047	RhymeSpell/fluff.WAV	RhymeSpell/puff.WAV
279.899	4.443	6	1	1.094	Tones/325500725.WAV	Tones/325500725.WAV
284.342	4.443	6	1	1.074	Tones/625450850.WAV	Tones/625450775.WAV
288.785	4.442	0	1	1.603	Tones/nullsilence.WAV	Tones/nullsilence.WAV
293.227	4.443	4	0	1.654	RhymeSpell/calm.WAV	RhymeSpell/fame.WAV
297.67	4.443	0	1	1.052	Tones/nullsilence.WAV	Tones/nullsilence.WAV
302.113	4.443	2	1	1.239	RhymeSpell/grade.WAV	RhymeSpell/laid.WAV
306.556	4.443	0	1	1.053	Tones/nullsilence.WAV	Tones/nullsilence.WAV
310.999	4.443	1	1	1.208	RhymeSpell/care.WAV	RhymeSpell/rare.WAV
315.442	4.443	4	1	1.103	RhymeSpell/fall.WAV	RhymeSpell/tint.WAV
319.885	4.442	1	1	1.308	RhymeSpell/note.WAV	RhymeSpell/wrote.WAV
324.327	4.443	5	1	1.056	Tones/800.WAV	Tones/800.WAV
328.77	4.443	5	1	1.261	Tones/375.WAV	Tones/450.WAV
333.213	4.443	0	1	1.099	Tones/nullsilence.WAV	Tones/nullsilence.WAV
337.656	4.443	4	1	1.112	RhymeSpell/splash.WAV	RhymeSpell/braid.WAV
342.099	4.443	0	1	1.381	Tones/nullsilence.WAV	Tones/nullsilence.WAV
346.542	4.442	1	1	1.516	RhymeSpell/spruce.WAV	RhymeSpell/truce.WAV
350.984	4.443	1	1	1.0	RhymeSpell/shell.WAV	RhymeSpell/tell.WAV
355.427	4.443	1	1	1.142	RhymeSpell/fist.WAV	RhymeSpell/gist.WAV
359.87	4.443	6	1	1.064	Tones/875675300.WAV	Tones/875675300.WAV
364.313	4.443	3	0	1.406	RhymeSpell/phase.WAV	RhymeSpell/case.WAV
368.756	4.443	2	1	1.277	RhymeSpell/run.WAV	RhymeSpell/ton.WAV
373.199	4.442	0	1	1.078	Tones/nullsilence.WAV	Tones/nullsilence.WAV
377.641	4.443	5	1	0.968	Tones/650.WAV	Tones/575.WAV
382.084	4.443	3	1	1.013	RhymeSpell/scarce.WAV	RhymeSpell/farce.WAV
386.527	4.443	4	1	0.962	RhymeSpell/half.WAV	RhymeSpell/bake.WAV
390.97	4.443	1	1	1.285	RhymeSpell/cart.WAV	RhymeSpell/smart.WAV
395.413	4.443	0	1	1.001	Tones/nullsilence.WAV	Tones/nullsilence.WAV
399.856	4.443	6	0	0.979	Tones/375750475.WAV	Tones/375750475.WAV
404.299	4.442	0	1	1.055	Tones/nullsilence.WAV	Tones/nullsilence.WAV
408.741	4.443	0	1	1.079	Tones/nullsilence.WAV	Tones/nullsilence.WAV
413.184	4.443	2	1	1.514	RhymeSpell/hood.WAV	RhymeSpell/should.WAV
417.627	4.443	0	1	1.081	Tones/nullsilence.WAV	Tones/nullsilence.WAV
422.07	4.443	6	1	1.108	Tones/375800525.WAV	Tones/375800525.WAV
426.513	4.443	2	1	1.199	RhymeSpell/fruit.WAV	RhymeSpell/loot.WAV
430.956	4.442	0	1	1.028	Tones/nullsilence.WAV	Tones/nullsilence.WAV
435.398	4.443	4	1	1.083	RhymeSpell/palm.WAV	RhymeSpell/salt.WAV
439.841	4.443	3	1	1.076	RhymeSpell/shall.WAV	RhymeSpell/call.WAV
444.284	4.443	0	1	0.926	Tones/nullsilence.WAV	Tones/nullsilence.WAV
448.727	4.443	1	1	1.436	RhymeSpell/clear.WAV	RhymeSpell/fear.WAV
453.17	4.443	2	0	1.208	RhymeSpell/view.WAV	RhymeSpell/few.WAV
457.613	4.442	5	1	1.06	Tones/300.WAV	Tones/375.WAV
462.055	4.443	0	1	1.164	Tones/nullsilence.WAV	Tones/nullsilence.WAV
466.498	4.443	5	1	1.675	Tones/575.WAV	Tones/650.WAV
470.941	4.443	0	1	1.089	Tones/nullsilence.WAV	Tones/nullsilence.WAV
475.384	4.439	4	1	1.134	RhymeSpell/crease.WAV	RhymeSpell/shave.WAV
